//gyro_x,gyro_y,gyro_z,acc_x,acc_y,acc_z,time
-0.003593,0.001524,0.000822,-0.066950,0.035876,1.031116,39518.522574
-0.005724,0.001524,0.004018,-0.048639,0.043383,1.027820,39518.527610
-0.006789,0.001524,-0.003439,-0.060083,0.004290,0.983050,39518.532579
-0.008919,0.001524,-0.002373,-0.104486,-0.051465,0.970141,39518.537614
-0.004658,-0.000607,-0.006634,-0.104578,-0.043866,1.000079,39518.542581
-0.007854,-0.000607,0.000822,-0.076837,0.010974,1.012256,39518.547612
-0.003593,-0.002737,-0.000243,-0.052851,0.028277,1.022052,39518.552603
-0.005724,0.001524,-0.002373,-0.052942,-0.001477,0.989825,39518.557590
-0.002528,0.000459,-0.006634,-0.091211,-0.052289,0.981952,39518.562605
-0.005724,0.003654,-0.005569,-0.104669,-0.048078,0.977466,39518.567587
-0.009985,-0.002737,-0.000243,-0.089838,-0.008710,0.996234,39518.572603
-0.004658,0.001524,0.001888,-0.058893,0.039172,1.010882,39518.577586
-0.008919,0.000459,-0.000243,-0.044611,0.025531,0.994220,39518.582596
-0.002528,0.001524,-0.000243,-0.079675,-0.035810,1.005206,39518.587591
-0.004658,0.002589,-0.013026,-0.097528,-0.048261,1.009326,39518.592606
-0.005724,-0.000607,-0.003439,-0.091669,-0.019056,1.003192,39518.597588
-0.002528,-0.002737,-0.003439,-0.067407,0.035510,1.024249,39518.602602
-0.004658,-0.000607,0.000822,-0.056604,0.036883,1.001086,39518.607587
-0.004658,-0.002737,-0.002373,-0.073816,-0.024640,0.987719,39518.612607
-0.007854,0.004720,-0.008765,-0.090570,-0.058789,0.988177,39518.617590
-0.007854,0.001524,-0.003439,-0.092584,-0.041761,1.003924,39518.622606
-0.003593,0.001524,-0.001308,-0.063654,0.016467,1.014819,39518.627588
-0.009985,-0.002737,0.000822,-0.048548,0.041644,1.003284,39518.632607
-0.003593,-0.005933,0.006149,-0.072717,0.001178,0.981769,39518.637589
-0.012115,0.003654,-0.005569,-0.094782,-0.053846,0.975360,39518.642606
-0.012115,0.000459,-0.004504,-0.103571,-0.049909,0.992755,39518.647587
-0.005724,-0.000607,-0.005569,-0.084162,0.000995,1.030017,39518.652607
-0.005724,-0.004868,-0.001308,-0.047724,0.044757,1.005298,39518.657590
-0.003593,-0.001672,0.001888,-0.057520,0.022693,0.996509,39518.662606
-0.004658,-0.000607,-0.006634,-0.083795,-0.027478,0.979205,39518.667587
-0.003593,-0.000607,-0.004504,-0.105860,-0.054944,0.978839,39518.672603
-0.006789,-0.001672,-0.006634,-0.091577,-0.021619,1.002185,39518.677615
-0.005724,-0.002737,0.000822,-0.054224,0.023791,0.999255,39518.682578
-0.006789,-0.004868,0.000822,-0.065393,0.023516,0.995227,39518.687617
-0.001462,0.001524,-0.002373,-0.081140,-0.021619,0.966571,39518.692577
-0.006789,-0.000607,-0.001308,-0.095331,-0.065290,0.982135,39518.697616
-0.009985,0.002589,-0.006634,-0.101099,-0.022626,1.011523,39518.702584
-0.005724,-0.002737,-0.004504,-0.069238,0.035968,1.004016,39518.707616
-0.009985,0.003654,0.002953,-0.049188,0.040362,1.009051,39518.712579
-0.009985,-0.000607,0.002953,-0.066034,0.008960,1.002276,39518.717621
-0.000397,-0.002737,-0.003439,-0.092493,-0.049817,0.992755,39518.722573
-0.003593,-0.000607,-0.006634,-0.091028,-0.048719,0.995410,39518.727611
-0.004658,-0.001672,-0.004504,-0.083154,0.002734,1.006030,39518.732577
-0.003593,-0.001672,0.000822,-0.059809,0.032855,1.008960,39518.737612
-0.009985,-0.005933,-0.000243,-0.054590,0.001544,0.976825,39518.742580
-0.009985,0.001524,0.004018,-0.087457,-0.060712,0.971698,39518.747620
-0.012115,0.001524,-0.005569,-0.099176,-0.057416,0.996142,39518.752580
-0.008919,0.002589,-0.006634,-0.099176,-0.012647,1.005847,39518.757617
-0.007854,-0.004868,-0.006634,-0.054682,0.037799,1.001910,39518.762578
-0.008919,-0.002737,0.001888,-0.035639,0.032122,1.013995,39518.767610
-0.007854,-0.002737,0.000822,-0.078851,-0.017133,1.003100,39518.772580
-0.012115,-0.001672,-0.007700,-0.105036,-0.051557,0.992022,39518.777613
-0.008919,-0.000607,-0.002373,-0.094690,-0.018415,0.982226,39518.782584
-0.006789,-0.001672,-0.009830,-0.068598,0.029559,1.024158,39518.787615
-0.006789,-0.005933,-0.002373,-0.044061,0.031024,1.004474,39518.792579
-0.002528,-0.003803,0.000822,-0.075739,-0.024274,0.976092,39518.797618
-0.012115,-0.002737,0.004018,-0.096521,-0.056318,0.955951,39518.802588
-0.005724,0.002589,-0.007700,-0.101373,-0.053754,0.985705,39518.807617
-0.003593,0.000459,-0.005569,-0.079492,0.006579,1.004382,39518.812602
-0.011050,-0.000607,-0.005569,-0.050836,0.042102,0.984607,39518.816604
-0.011050,-0.000607,-0.005569,-0.068323,-0.000653,0.978015,39518.821582
-0.009985,-0.000607,0.002953,-0.068323,-0.000653,0.978015,39518.822614
-0.005724,0.003654,0.001888,-0.102564,-0.046338,0.973071,39518.826611
-0.007854,-0.000607,-0.004504,-0.102838,-0.050733,0.990008,39518.831580
-0.007854,0.001524,-0.006634,-0.075189,0.003466,1.025714,39518.836604
-0.006789,-0.000607,-0.004504,-0.058161,0.048510,1.031299,39518.841583
-0.002528,-0.000607,-0.006634,-0.059992,0.024981,0.999713,39518.846606
-0.003593,-0.001672,0.002953,-0.076563,-0.027478,0.983600,39518.851581
-0.003593,-0.000607,-0.001308,-0.089197,-0.065198,0.987170,39518.856607
-0.006789,-0.002737,-0.005569,-0.091852,-0.025373,1.004565,39518.861587
-0.004658,0.000459,-0.008765,-0.066492,0.025348,0.990924,39518.866604
-0.013180,-0.002737,-0.000243,-0.051569,0.020770,0.984881,39518.871580
-0.011050,-0.001672,-0.002373,-0.069238,-0.030957,0.984240,39518.876608
-0.007854,-0.004868,0.001888,-0.105219,-0.060254,0.980029,39518.881580
-0.005724,-0.000607,-0.004504,-0.101648,-0.032331,0.979114,39518.886606
-0.007854,0.002589,-0.001308,-0.072351,0.025988,0.991839,39518.891580
-0.012115,-0.000607,-0.005569,-0.058435,0.046588,1.020129,39518.896605
-0.005724,0.000459,-0.004504,-0.058618,0.006305,0.993854,39518.901580
-0.002528,-0.000607,-0.000243,-0.089472,-0.043683,0.982501,39518.906604
-0.002528,-0.002737,0.004018,-0.100824,-0.039380,0.991382,39518.911581
-0.006789,-0.001672,-0.008765,-0.083612,0.006579,1.015460,39518.916615
-0.005724,-0.001672,-0.006634,-0.050195,0.030474,0.990100,39518.921582
-0.005724,-0.004868,-0.007700,-0.051019,0.010791,0.974444,39518.926603
-0.009985,-0.000607,0.002953,-0.099817,-0.063550,0.961810,39518.931580
-0.014246,0.001524,-0.001308,-0.107324,-0.065107,0.966662,39518.936578
-0.014246,0.000459,-0.004504,-0.082605,-0.022260,0.987445,39518.941609
-0.009985,0.005785,-0.003439,-0.065851,0.026172,1.007678,39518.946578
-0.013180,0.000459,-0.007700,-0.045343,0.042193,1.000354,39518.951610
-0.007854,-0.001672,-0.003439,-0.072260,-0.025739,0.990191,39518.956577
-0.004658,-0.005933,-0.001308,-0.097711,-0.044324,0.980121,39518.961615
-0.003593,0.000459,0.000822,-0.104578,-0.024091,1.007312,39518.966579
-0.003593,-0.000607,-0.004504,-0.070703,0.034411,1.001086,39518.971608
-0.004658,-0.002737,-0.007700,-0.043421,0.027270,0.989734,39518.976581
-0.003593,-0.002737,-0.002373,-0.070520,-0.012555,0.985614,39518.981608
-0.003593,-0.003803,0.001888,-0.098535,-0.061811,0.972156,39518.986580
-0.006789,-0.003803,0.001888,-0.073358,-0.000379,0.992480,39518.991605
-0.008919,-0.000607,-0.000243,-0.049463,0.031298,0.995044,39518.996577
-0.013180,0.002589,-0.006634,-0.062097,-0.002118,0.975909,39519.001610
-0.008919,-0.002737,-0.006634,-0.091486,-0.052472,0.965381,39519.006579
-0.014246,0.001524,-0.003439,-0.097437,-0.048719,0.977282,39519.011609
-0.009985,-0.001672,-0.002373,-0.082605,-0.004865,1.012622,39519.016576
-0.007854,-0.001672,0.007214,-0.047540,0.041919,1.010425,39519.021615
-0.006789,-0.001672,-0.002373,-0.053125,0.023150,0.995227,39519.026577
-0.011050,0.002589,-0.005569,-0.084711,-0.023999,0.970691,39519.031607
-0.004658,-0.004868,-0.002373,-0.108606,-0.052655,0.976367,39519.036580
-0.003593,-0.003803,-0.000243,-0.095239,-0.025830,0.976733,39519.041584
-0.002528,-0.000607,-0.002373,-0.068140,0.028003,0.994311,39519.046579
-0.007854,0.002589,-0.002373,-0.052759,0.024340,0.983325,39519.051584
-0.008919,0.000459,-0.006634,-0.067774,-0.026288,0.975635,39519.056608
-0.007854,0.001524,-0.006634,-0.107691,-0.068494,0.966388,39519.061585
-0.007854,-0.000607,-0.000243,-0.106958,-0.048352,0.982867,39519.066606
-0.013180,-0.001672,-0.001308,-0.070703,0.010791,0.993945,39519.071582
-0.009985,-0.000607,-0.001308,-0.055048,0.033038,1.004107,39519.076612
-0.012115,0.002589,-0.004504,-0.068598,0.005938,0.978747,39519.081584
-0.009985,0.001524,-0.008765,-0.100092,-0.055219,0.984332,39519.086611
-0.004658,-0.001672,-0.006634,-0.091669,-0.040021,0.991198,39519.091586
-0.009985,-0.002737,0.004018,-0.071893,-0.002301,1.011615,39519.096602
-0.006789,-0.004868,0.006149,-0.056696,0.045031,1.001269,39519.101581
-0.001462,-0.004868,-0.005569,-0.071802,0.010241,0.966296,39519.106601
-0.004658,-0.001672,-0.009830,-0.087549,-0.045423,0.943042,39519.111588
-0.007854,0.004720,-0.005569,-0.100275,-0.063825,0.971423,39519.116604
-0.011050,-0.003803,-0.006634,-0.088739,-0.025830,0.998156,39519.121584
-0.006789,-0.001672,0.006149,-0.054132,0.023791,0.998980,39519.126606
-0.005724,-0.000607,0.000822,-0.051569,0.024249,0.972979,39519.131576
-0.013180,-0.000607,-0.005569,-0.081781,-0.021253,0.969043,39519.136605
-0.008919,0.005785,-0.005569,-0.096247,-0.055402,0.978564,39519.141584
-0.007854,0.003654,-0.006634,-0.095056,-0.029767,0.991748,39519.146607
-0.003593,-0.001672,0.004018,-0.068689,0.031298,1.001819,39519.151583
-0.005724,-0.001672,0.006149,-0.057062,0.036517,1.010882,39519.156615
-0.008919,-0.000607,0.001888,-0.062464,-0.013654,0.987262,39519.161586
-0.005724,0.003654,-0.006634,-0.083978,-0.058606,0.982959,39519.166608
-0.011050,0.000459,-0.006634,-0.104120,-0.051740,0.988360,39519.171580
-0.001462,0.002589,0.000822,-0.081598,-0.000837,0.997333,39519.176608
-0.009985,-0.003803,-0.000243,-0.052484,0.028003,0.975726,39519.181582
-0.007854,0.004720,0.001888,-0.051752,0.005664,0.980395,39519.186601
-0.011050,-0.000607,-0.001308,-0.092127,-0.056226,0.987445,39519.191619
-0.006789,0.002589,-0.005569,-0.101831,-0.057691,0.966113,39519.196580
-0.006789,0.000459,-0.001308,-0.091944,-0.007154,0.993487,39519.201612
-0.013180,-0.000607,-0.003439,-0.062280,0.039080,1.012988,39519.206578
-0.004658,-0.003803,0.000822,-0.048822,0.022052,1.003833,39519.211609
-0.006789,0.002589,-0.003439,-0.074549,-0.029676,0.968402,39519.216578
-0.008919,0.000459,-0.004504,-0.100549,-0.058698,0.976184,39519.221616
-0.004658,0.003654,-0.006634,-0.102289,-0.021436,0.999988,39519.226578
-0.006789,-0.001672,-0.004504,-0.066400,0.026629,0.992297,39519.231604
-0.001462,0.004720,0.005083,-0.035364,0.031024,0.996234,39519.236575
-0.008919,0.001524,-0.002373,-0.067499,-0.013562,0.998980,39519.241611
-0.002528,0.001524,-0.003439,-0.108057,-0.054395,0.995135,39519.246583
-0.006789,0.003654,-0.008765,-0.099359,-0.044324,0.982593,39519.251610
-0.003593,-0.000607,-0.006634,-0.073725,-0.005872,0.999713,39519.256582
-0.009985,-0.000607,-0.002373,-0.063013,0.021411,1.020038,39519.261612
-0.001462,0.001524,0.004018,-0.071527,-0.019605,0.972247,39519.266582
-0.006789,0.003654,-0.002373,-0.093408,-0.056684,0.948077,39519.271620
-0.014246,0.002589,-0.008765,-0.087091,-0.052289,1.003650,39519.276577
-0.016376,-0.004868,-0.001308,-0.074091,0.005572,1.021411,39519.281614
-0.007854,-0.004868,-0.006634,-0.042871,0.055835,1.015368,39519.286582
-0.006789,-0.006998,0.000822,-0.052759,0.022967,0.980945,39519.291611
0.005994,0.000459,-0.005569,-0.099176,-0.040845,0.968219,39519.296578
0.004929,0.003654,-0.006634,-0.112085,-0.056775,0.979937,39519.301609
-0.008919,0.000459,-0.005569,-0.086084,-0.034345,0.969592,39519.306587
-0.014246,0.006850,-0.005569,-0.062555,0.022784,1.014453,39519.311613
-0.012115,0.003654,0.001888,-0.060083,0.030200,0.998797,39519.316578
-0.001462,0.003654,-0.003439,-0.062647,-0.026654,0.988818,39519.321591
-0.004658,0.005785,-0.000243,-0.078028,-0.057141,0.992022,39519.326599
-0.002528,-0.000607,-0.007700,-0.094873,-0.037732,1.008502,39519.331589
-0.003593,0.002589,-0.003439,-0.075922,0.011798,1.011157,39519.336609
-0.011050,-0.000607,-0.004504,-0.050745,0.022967,0.982959,39519.341585
-0.008919,-0.001672,-0.000243,-0.066950,-0.013837,1.005572,39519.346601
-0.008919,-0.002737,0.002953,-0.095606,-0.065015,1.006671,39519.351590
-0.012115,-0.001672,-0.007700,-0.095606,-0.063733,1.003741,39519.356607
-0.006789,0.001524,-0.003439,-0.069605,0.001086,1.012439,39519.361586
-0.012115,-0.002737,-0.006634,-0.051660,0.042376,1.010608,39519.366610
-0.007854,-0.002737,-0.001308,-0.066767,0.011065,0.986804,39519.371583
-0.013180,-0.002737,0.002953,-0.083338,-0.041394,0.956317,39519.376600
-0.006789,-0.001672,-0.001308,-0.098902,-0.056318,0.982684,39519.381590
-0.002528,0.000459,-0.005569,-0.095789,-0.018598,1.011065,39519.386607
-0.003593,0.004720,-0.005569,-0.066492,0.020953,0.997973,39519.391585
-0.005724,-0.003803,-0.006634,-0.059992,0.016375,0.995501,39519.396610
-0.005724,0.001524,0.002953,-0.091303,-0.041120,0.987079,39519.401583
-0.002528,0.003654,-0.001308,-0.111170,-0.064649,0.978015,39519.406611
-0.011050,0.005785,-0.006634,-0.094507,-0.026105,1.007861,39519.410635
-0.011050,0.005785,-0.006634,-0.060358,0.023700,1.009784,39519.415596
-0.012115,0.001524,-0.003439,-0.060358,0.023700,1.009784,39519.416617
-0.001462,0.000459,-0.005569,-0.043329,0.031482,1.039721,39519.420638
-0.001462,0.000459,-0.005569,-0.061640,-0.013654,0.994586,39519.425596
-0.002528,-0.001672,0.002953,-0.061640,-0.013654,0.994586,39519.426613
-0.002528,-0.001672,-0.003439,-0.094782,-0.069959,0.975360,39519.430635
-0.002528,0.001524,0.000822,-0.109064,-0.061444,0.984515,39519.435601
-0.008919,0.000459,-0.004504,-0.088007,0.003466,0.997973,39519.440631
-0.012115,0.003654,-0.004504,-0.060266,0.019671,0.994861,39519.445621
-0.005724,0.003654,-0.004504,-0.070978,0.004107,0.979297,39519.450608
-0.009985,0.000459,0.001888,-0.099268,-0.047620,0.985614,39519.455629
-0.001462,0.002589,0.004018,-0.094599,-0.047254,0.992480,39519.460603
-0.004658,0.000459,-0.004504,-0.071619,0.000811,1.011889,39519.465623
-0.007854,0.003654,-0.007700,-0.050653,0.042468,1.021136,39519.470605
-0.000397,-0.000607,-0.003439,-0.056696,0.018664,1.004748,39519.475623
-0.003593,-0.001672,-0.003439,-0.083063,-0.045514,0.992114,39519.480610
0.000668,-0.002737,0.005083,-0.094415,-0.066205,0.983416,39519.485630
-0.004658,0.002589,-0.002373,-0.096430,-0.042218,1.012805,39519.490608
-0.003593,-0.001672,-0.006634,-0.077020,0.018847,1.014911,39519.495624
-0.005724,0.001524,-0.008765,-0.049097,0.016375,0.981769,39519.500607
-0.008919,0.000459,-0.002373,-0.070612,-0.033612,0.983233,39519.505621
-0.009985,-0.001672,0.004018,-0.098718,-0.064099,0.991107,39519.510609
-0.013180,0.001524,-0.000243,-0.088739,-0.044599,0.995685,39519.515621
-0.005724,0.000459,-0.006634,-0.065943,0.013537,1.017200,39519.520615
-0.000397,-0.002737,-0.006634,-0.044061,0.034411,1.005755,39519.525622
-0.004658,0.001524,-0.004504,-0.065851,-0.007886,0.996509,39519.530611
-0.005724,-0.000607,-0.001308,-0.109064,-0.045514,0.963550,39519.535627
-0.004658,0.001524,0.001888,-0.108148,-0.046979,0.988360,39519.540612
-0.003593,0.004720,-0.004504,-0.084894,-0.000470,1.021045,39519.545620
-0.005724,0.001524,-0.005569,-0.045984,0.039996,1.023334,39519.550608
-0.006789,0.004720,-0.006634,-0.079309,-0.044507,0.999804,39519.555625
-0.001462,0.002589,-0.001308,-0.105310,-0.059888,0.997973,39519.560625
0.000668,-0.005933,-0.000243,-0.082880,-0.025556,1.002276,39519.565597
-0.006789,0.003654,0.000822,-0.058618,0.024066,1.022143,39519.570635
-0.007854,0.003654,-0.005569,-0.055048,0.016101,1.020038,39519.575602
-0.004658,-0.003803,-0.006634,-0.069238,-0.034345,1.000903,39519.580642
-0.003593,0.001524,-0.004504,-0.095697,-0.082135,1.000537,39519.585598
-0.004658,-0.004868,0.000822,-0.104028,-0.035443,1.021411,39519.590639
-0.006789,-0.000607,-0.000243,-0.075372,0.025439,1.000079,39519.595597
-0.009985,-0.002737,-0.002373,-0.057428,0.026629,0.992297,39519.600640
-0.007854,0.004720,-0.006634,-0.061914,-0.000196,0.969226,39519.605600
-0.013180,-0.003803,-0.006634,-0.092951,-0.051465,0.998706,39519.610635
-0.004658,-0.002737,-0.004504,-0.110712,-0.049359,0.995501,39519.615600
0.001733,-0.000607,-0.004504,-0.079218,0.006671,1.004107,39519.620641
-0.002528,-0.002737,0.001888,-0.059076,0.041552,1.014544,39519.625595
-0.001462,0.002589,-0.005569,-0.063379,0.004748,1.000720,39519.630636
-0.002528,0.001524,-0.008765,-0.099359,-0.049543,0.985431,39519.635600
-0.000397,0.002589,-0.007700,-0.110986,-0.055310,0.974719,39519.640632
-0.007854,-0.000607,-0.000243,-0.081964,-0.018964,1.026721,39519.645592
-0.004658,0.001524,0.005083,-0.047083,0.022326,1.044848,39519.650638
0.001733,0.001524,-0.004504,-0.036920,0.014361,1.018207,39519.655598
0.001733,-0.001672,-0.008765,-0.081232,-0.049817,0.993030,39519.660637
-0.003593,-0.001672,-0.008765,-0.099542,-0.068311,0.973620,39519.665596
-0.004658,-0.004868,-0.001308,-0.100549,-0.030683,0.997058,39519.670633
-0.008919,-0.005933,0.000822,-0.064844,0.023608,0.996783,39519.675599
-0.004658,-0.001672,0.006149,-0.058435,0.026263,0.999804,39519.680645
-0.011050,-0.001672,-0.004504,-0.085901,-0.021070,0.980670,39519.685595
-0.004658,0.004720,-0.005569,-0.102106,-0.064008,0.979663,39519.690606
0.000668,0.001524,-0.005569,-0.100275,-0.042951,0.993670,39519.695628
-0.003593,-0.001672,-0.002373,-0.077753,0.024707,1.031024,39519.700607
-0.000397,0.001524,-0.001308,-0.050287,0.046862,1.006305,39519.705622
-0.004658,-0.000607,-0.004504,-0.065119,0.002551,0.990191,39519.710612
-0.004658,0.003654,-0.007700,-0.087915,-0.044873,0.990741,39519.715635
-0.005724,-0.000607,-0.006634,-0.100366,-0.064283,1.002826,39519.720607
0.000668,-0.001672,-0.001308,-0.094782,-0.014295,1.023150,39519.725625
-0.006789,-0.003803,-0.003439,-0.057611,0.021228,1.015185,39519.730611
-0.005724,0.002589,0.001888,-0.048731,-0.002576,1.011889,39519.735626
-0.005724,-0.000607,-0.006634,-0.082147,-0.050275,0.999713,39519.740615
-0.012115,-0.000607,-0.006634,-0.099176,-0.063825,1.000995,39519.745624
-0.007854,-0.001672,-0.006634,-0.082422,-0.013745,1.003650,39519.750611
-0.000397,-0.005933,-0.004504,-0.049921,0.032580,1.008136,39519.755625
0.002799,-0.000607,0.002953,-0.052942,0.023700,0.991382,39519.760615
-0.002528,-0.003803,-0.004504,-0.088281,-0.022718,0.957324,39519.765628
-0.007854,0.000459,-0.003439,-0.115564,-0.066297,0.972613,39519.770610
-0.005724,-0.000607,-0.008765,-0.098535,-0.043042,0.998523,39519.775628
-0.007854,-0.002737,-0.005569,-0.064569,0.011981,1.037341,39519.780611
-0.000397,-0.001672,-0.000243,-0.049188,0.032763,1.017474,39519.785620
-0.001462,-0.002737,0.000822,-0.065851,-0.009168,0.979388,39519.790607
0.001733,-0.000607,-0.004504,-0.100275,-0.058057,0.968493,39519.795634
-0.005724,0.003654,-0.006634,-0.095514,-0.049543,0.981402,39519.800609
-0.003593,-0.005933,-0.008765,-0.067224,-0.014203,1.018573,39519.805623
-0.004658,-0.001672,0.001888,-0.038568,0.030383,1.027728,39519.810631
-0.004658,-0.003803,0.001888,-0.057886,-0.000470,1.016925,39519.815606
-0.002528,-0.002737,-0.004504,-0.094599,-0.057691,0.975909,39519.820647
-0.002528,0.000459,-0.008765,-0.113550,-0.062268,0.986987,39519.825600
-0.005724,0.001524,-0.010896,-0.089380,-0.012922,0.990191,39519.830637
-0.013180,-0.002737,-0.003439,-0.060266,0.031939,1.006122,39519.835601
-0.007854,-0.002737,-0.001308,-0.060724,0.031115,0.980121,39519.840642
-0.001462,-0.000607,0.000822,-0.082880,-0.028211,0.978290,39519.845598
-0.003593,0.002589,-0.002373,-0.103845,-0.059980,0.994586,39519.850637
-0.001462,-0.003803,-0.011961,-0.092310,-0.028211,0.998065,39519.855598
-0.000397,0.000459,-0.002373,-0.066400,0.022143,1.000995,39519.860639
-0.004658,-0.000607,-0.006634,-0.050562,0.026812,0.985888,39519.865596
-0.000397,-0.000607,0.000822,-0.079492,-0.019880,0.989367,39519.870639
-0.002528,-0.000607,-0.005569,-0.096979,-0.059797,0.980670,39519.875605
-0.002528,-0.000607,-0.003439,-0.097070,-0.049359,1.008227,39519.880637
-0.001462,0.001524,-0.007700,-0.068598,0.004840,1.025897,39519.885595
-0.003593,-0.005933,-0.006634,-0.038019,0.035601,1.015552,39519.890633
-0.004658,-0.001672,0.005083,-0.064386,-0.004865,0.981585,39519.895600
-0.007854,-0.001672,0.000822,-0.095239,-0.051007,0.956408,39519.900634
-0.002528,-0.001672,-0.005569,-0.111902,-0.063642,0.969134,39519.905596
-0.008919,0.000459,-0.007700,-0.088648,-0.015851,0.990466,39519.910646
-0.006789,-0.001672,-0.006634,-0.047907,0.026904,1.005755,39519.915600
-0.008919,0.000459,-0.004504,-0.056970,0.023883,0.996325,39519.920639
-0.002528,-0.000607,-0.002373,-0.095423,-0.027204,0.968951,39519.925597
-0.001462,0.002589,0.000822,-0.101831,-0.053022,0.957324,39519.930636
-0.002528,-0.000607,-0.006634,-0.079218,-0.013745,0.998431,39519.935597
-0.003593,0.002589,-0.002373,-0.058893,0.032031,1.014361,39519.940617
-0.000397,0.000459,-0.005569,-0.053766,0.032489,0.994494,39519.945626
0.000668,0.002589,0.000822,-0.078485,-0.024366,0.960528,39519.950609
-0.000397,-0.001672,0.000822,-0.098535,-0.068036,0.980761,39519.955624
0.000668,0.004720,-0.004504,-0.081232,-0.048078,1.016925,39519.960609
-0.000397,-0.000607,-0.005569,-0.063654,0.014178,1.016742,39519.965625
-0.004658,0.000459,-0.004504,-0.052576,0.033679,0.993213,39519.970613
-0.005724,-0.004868,-0.005569,-0.065393,-0.012189,0.971972,39519.975630
-0.002528,0.000459,0.001888,-0.092493,-0.058515,0.982593,39519.980613
-0.004658,-0.001672,-0.001308,-0.088739,-0.060804,0.995501,39519.985621
-0.002528,-0.003803,-0.004504,-0.071070,-0.003034,1.002643,39519.990611
-0.002528,0.000459,-0.009830,-0.059259,0.035693,1.004657,39519.995632
-0.007854,-0.003803,0.000822,-0.055322,0.016009,0.975543,39520.000610
0.000668,-0.000607,-0.002373,-0.089380,-0.043866,0.980121,39520.005623
-0.003593,-0.001672,-0.004504,-0.105036,-0.056501,0.971240,39520.010611
0.001733,-0.000607,-0.007700,-0.089197,-0.019696,0.992114,39520.015629
0.001733,0.003654,-0.002373,-0.058069,0.028552,0.993579,39520.020611
-0.002528,0.001524,-0.010896,-0.085626,-0.034070,0.960254,39520.025624
-0.003593,-0.001672,-0.002373,-0.085626,-0.034070,0.960254,39520.029633
-0.003593,-0.001672,-0.002373,-0.103845,-0.057599,0.971240,39520.034590
-0.002528,0.000459,0.001888,-0.091760,-0.037366,1.000537,39520.035635
-0.005724,0.001524,-0.002373,-0.091760,-0.037366,1.000537,39520.039622
-0.002528,0.002589,-0.001308,-0.060083,0.018390,1.016284,39520.044598
-0.004658,0.001524,-0.010896,-0.053400,0.036425,1.001452,39520.049626
-0.001462,-0.000607,-0.004504,-0.076837,-0.017865,0.971148,39520.054596
-0.000397,-0.000607,-0.002373,-0.100000,-0.060346,0.972613,39520.059623
-0.005724,0.000459,-0.000243,-0.098718,-0.051648,0.994861,39520.064591
-0.005724,0.003654,-0.003439,-0.066675,-0.000928,1.020129,39520.069623
0.002799,0.000459,-0.008765,-0.046167,0.029559,1.007129,39520.074617
-0.002528,0.000459,-0.003439,-0.062372,0.003466,0.989276,39520.079595
-0.003593,0.000459,-0.001308,-0.094232,-0.056134,0.960528,39520.084621
-0.004658,-0.002737,-0.000243,-0.104486,-0.058973,0.971148,39520.089602
-0.004658,-0.001672,-0.002373,-0.089288,-0.016950,0.993945,39520.094627
-0.003593,0.001524,-0.007700,-0.056513,0.034503,1.004199,39520.099596
-0.002528,0.003654,-0.006634,-0.054773,0.025531,0.999530,39520.104618
-0.001462,0.001524,-0.005569,-0.078211,-0.034070,0.982776,39520.109596
0.001733,-0.003803,-0.001308,-0.102381,-0.066205,0.987903,39520.114617
0.000668,0.000459,-0.003439,-0.060541,0.017382,0.999621,39520.119594
-0.004658,0.001524,-0.004504,-0.052942,0.019030,0.994494,39520.124622
-0.000397,0.003654,-0.006634,-0.082971,-0.020795,0.976825,39520.129598
-0.007854,-0.001672,-0.006634,-0.103845,-0.068677,0.988910,39520.134621
-0.003593,0.002589,-0.000243,-0.076105,-0.047895,0.999255,39520.139597
-0.003593,-0.004868,-0.000243,-0.074732,0.005847,1.019031,39520.144614
-0.004658,0.001524,0.000822,-0.061823,0.035693,0.986072,39520.149600
-0.004658,-0.003803,-0.008765,-0.070246,-0.009717,0.966205,39520.154622
-0.012115,-0.000607,-0.004504,-0.093866,-0.058606,0.970233,39520.159596
-0.006789,0.000459,-0.001308,-0.098993,-0.051831,1.003009,39520.164616
-0.004658,-0.000607,0.000822,-0.080774,-0.002210,1.003833,39520.169595
-0.004658,0.000459,-0.003439,-0.053858,0.037341,1.005939,39520.174622
0.000668,0.000459,-0.002373,-0.054407,0.017474,0.993854,39520.179601
0.001733,0.000459,-0.004504,-0.098627,-0.043592,0.981036,39520.184618
-0.000397,0.001524,-0.006634,-0.111078,-0.069226,0.963641,39520.189623
-0.003593,-0.000607,-0.005569,-0.092676,-0.032605,0.992114,39520.194592
-0.005724,0.001524,-0.000243,-0.068140,0.028003,1.030658,39520.199627
-0.002528,0.001524,-0.002373,-0.042963,0.015918,1.012622,39520.204600
-0.001462,0.001524,-0.001308,-0.063745,-0.025830,0.995410,39520.209628
-0.001462,0.001524,-0.008765,-0.099085,-0.060346,0.993487,39520.214594
-0.002528,-0.002737,-0.004504,-0.099451,-0.045514,1.001636,39520.219625
-0.001462,-0.000607,-0.003439,-0.066217,0.009051,1.008502,39520.224590
-0.000397,-0.002737,0.000822,-0.051569,0.029467,0.998248,39520.229626
-0.004658,-0.000607,-0.005569,-0.068781,-0.015027,0.988269,39520.234594
-0.003593,-0.001672,-0.008765,-0.095331,-0.057141,0.992572,39520.239628
-0.004658,0.000459,-0.004504,-0.096430,-0.053022,0.994586,39520.244598
-0.001462,-0.005933,-0.002373,-0.079218,0.005206,1.012622,39520.249627
-0.001462,-0.004868,-0.001308,-0.062097,0.039264,0.998889,39520.254592
-0.002528,-0.000607,-0.001308,-0.057153,0.003924,0.981128,39520.259618
-0.006789,0.001524,-0.003439,-0.080866,-0.049817,0.978106,39520.264594
-0.006789,-0.000607,-0.010896,-0.110163,-0.061811,0.985614,39520.269625
-0.003593,-0.004868,-0.006634,-0.092401,-0.022077,1.007037,39520.274591
-0.001462,-0.000607,-0.000243,-0.047174,0.032855,1.011340,39520.279625
-0.000397,-0.000607,-0.002373,-0.050287,0.023791,1.026629,39520.284596
-0.002528,0.000459,-0.000243,-0.075464,-0.027661,0.994037,39520.289619
0.001733,-0.001672,-0.005569,-0.100549,-0.061444,0.992206,39520.294594
-0.003593,-0.002737,-0.008765,-0.100549,-0.031324,0.998065,39520.299624
-0.003593,-0.003803,-0.002373,-0.069788,0.014727,1.017108,39520.304615
-0.000397,-0.005933,-0.000243,-0.054041,0.027728,1.003284,39520.309600
-0.001462,-0.004868,0.000822,-0.071985,-0.019056,0.968219,39520.314620
-0.003593,-0.000607,-0.002373,-0.093500,-0.067670,0.976733,39520.319598
-0.005724,0.001524,-0.009830,-0.095514,-0.053937,0.999438,39520.324616
-0.003593,-0.006998,-0.006634,-0.071070,0.001178,1.010333,39520.329597
-0.001462,0.000459,-0.001308,-0.054041,0.035235,0.998614,39520.334618
-0.001462,-0.001672,0.000822,-0.075098,0.005755,0.979846,39520.339595
-0.001462,-0.001672,-0.006634,-0.095423,-0.052747,0.975268,39520.344622
-0.003593,0.004720,-0.007700,-0.096338,-0.052930,0.995868,39520.349597
-0.000397,-0.005933,-0.004504,-0.084253,-0.008161,1.015094,39520.354622
-0.004658,-0.003803,-0.002373,-0.055048,0.035418,1.026629,39520.359601
-0.001462,-0.001672,-0.002373,-0.057977,0.013446,1.002185,39520.364614
-0.003593,-0.001672,0.001888,-0.088831,-0.043592,0.988360,39520.369598
-0.002528,0.001524,-0.007700,-0.092493,-0.071057,0.983142,39520.374626
-0.006789,-0.000607,-0.006634,-0.090112,-0.028852,1.003009,39520.379602
-0.007854,-0.000607,-0.003439,-0.063288,0.022784,1.013354,39520.384626
-0.006789,-0.003803,-0.001308,-0.042780,0.025256,1.000537,39520.389603
-0.001462,-0.000607,0.002953,-0.074915,-0.026838,0.999164,39520.394626
-0.000397,-0.005933,-0.004504,-0.104761,-0.061536,0.982043,39520.399602
-0.001462,0.000459,-0.009830,-0.106226,-0.048078,0.976825,39520.404623
-0.009985,-0.002737,-0.006634,-0.080683,0.004657,1.009326,39520.409598
-0.008919,-0.002737,-0.002373,-0.045343,0.035785,1.004199,39520.414621
-0.011050,0.001524,0.004018,-0.062830,-0.002301,1.006946,39520.419602
-0.002528,-0.001672,-0.008765,-0.089197,-0.052289,0.990191,39520.424596
0.002799,-0.001672,-0.006634,-0.095972,-0.057691,1.015735,39520.429625
0.001733,-0.001672,-0.007700,-0.081873,0.001178,1.018939,39520.434592
0.002799,-0.004868,-0.004504,-0.057245,0.024340,0.992297,39520.439625
-0.004658,-0.002737,-0.001308,-0.061548,0.001635,0.982135,39520.444594
-0.005724,-0.002737,-0.001308,-0.091760,-0.050641,0.982135,39520.449627
-0.004658,-0.002737,-0.002373,-0.101007,-0.075818,0.988635,39520.454592
-0.002528,-0.000607,-0.006634,-0.083795,-0.038099,1.009234,39520.459625
-0.002528,-0.003803,-0.008765,-0.056879,0.026904,1.010974,39520.464592
-0.008919,-0.001672,-0.001308,-0.056146,0.023242,1.007953,39520.469626
-0.005724,-0.003803,-0.002373,-0.079218,-0.020703,0.965930,39520.474589
-0.006789,-0.003803,-0.006634,-0.110712,-0.061536,0.970416,39520.479631
-0.008919,0.000459,-0.009830,-0.094599,-0.030225,1.004657,39520.484593
-0.002528,-0.000607,-0.009830,-0.063196,0.019946,1.024341,39520.489627
-0.002528,-0.002737,-0.006634,-0.047357,0.028460,1.025531,39520.494595
-0.002528,-0.003803,0.001888,-0.075098,-0.009351,0.986987,39520.499624
-0.000397,-0.005933,-0.004504,-0.100458,-0.066297,0.971423,39520.504592
-0.000397,-0.001672,0.000822,-0.098810,-0.060712,0.993304,39520.509626
-0.004658,-0.001672,-0.014091,-0.076746,-0.004224,1.003924,39520.514595
-0.003593,-0.001672,-0.008765,-0.052393,0.024798,1.016192,39520.519625
-0.002528,-0.005933,-0.004504,-0.051111,-0.004499,0.991107,39520.524591
0.000668,-0.000607,0.000822,-0.085809,-0.065015,1.005572,39520.529626
-0.003593,-0.003803,-0.000243,-0.099817,-0.061536,0.991931,39520.534591
-0.012115,-0.001672,-0.005569,-0.086450,-0.023908,0.999713,39520.539625
-0.009985,-0.001672,-0.008765,-0.064569,0.028186,1.005572,39520.544592
-0.009985,-0.001672,-0.000243,-0.052851,0.030474,1.005115,39520.549624
-0.008919,-0.003803,-0.003439,-0.074823,-0.032239,1.011157,39520.554597
0.002799,-0.001672,-0.002373,-0.097986,-0.056867,0.997516,39520.559624
0.001733,-0.001672,-0.005569,-0.096613,-0.023175,1.012530,39520.564622
-0.000397,-0.000607,-0.008765,-0.063379,0.023608,1.011706,39520.569606
-0.002528,-0.005933,-0.008765,-0.039392,0.018481,0.993670,39520.574627
-0.000397,-0.004868,-0.004504,-0.075464,-0.027570,0.982959,39520.579600
-0.001462,-0.005933,-0.002373,-0.111261,-0.074994,0.963092,39520.584617
-0.004658,-0.000607,-0.001308,-0.095789,-0.067762,0.980121,39520.589596
-0.007854,0.001524,-0.006634,-0.046259,0.029742,1.024524,39520.594625
-0.004658,-0.001672,-0.009830,-0.062464,-0.002484,0.991839,39520.599600
-0.005724,-0.001672,-0.003439,-0.089014,-0.044141,0.981402,39520.604620
-0.005724,-0.002737,0.002953,-0.107233,-0.047803,1.007953,39520.609600
-0.000397,-0.005933,-0.000243,-0.088831,-0.008344,1.030292,39520.614625
-0.003593,-0.002737,-0.005569,-0.046442,0.038440,1.002185,39520.619601
-0.001462,-0.003803,-0.005569,-0.050287,0.011615,1.004107,39520.624619
0.000668,-0.001672,-0.009830,-0.085443,-0.038739,0.983783,39520.629601
-0.001462,-0.006998,-0.005569,-0.109247,-0.069501,0.958880,39520.634625
0.002799,-0.008064,-0.000243,-0.094965,-0.033429,0.979114,39520.639602
-0.001462,0.000459,-0.002373,-0.064295,0.018298,1.000628,39520.644619
-0.006789,-0.000607,-0.003439,-0.064295,0.018298,1.000628,39520.648619
-0.008919,0.000459,-0.008765,-0.043237,0.020678,0.997516,39520.653602
-0.001462,-0.000607,-0.004504,-0.062921,-0.021070,0.972979,39520.658617
-0.002528,-0.003803,-0.000243,-0.107691,-0.057141,0.986163,39520.663600
-0.002528,-0.004868,-0.004504,-0.108423,-0.033338,0.983325,39520.668618
-0.004658,0.000459,-0.001308,-0.062647,0.015185,1.004748,39520.673601
-0.007854,0.000459,-0.006634,-0.046533,0.035693,1.033313,39520.678615
0.000668,-0.005933,-0.009830,-0.065302,-0.001111,1.002093,39520.683623
-0.001462,-0.004868,-0.002373,-0.094873,-0.060620,0.982684,39520.688588
0.001733,-0.003803,0.002953,-0.076288,-0.002210,1.019305,39520.693636
-0.001462,-0.002737,0.005083,-0.061731,0.031573,1.013263,39520.698587
0.001733,-0.004868,-0.008765,-0.059534,-0.000196,0.956958,39520.703625
-0.003593,-0.005933,-0.013026,-0.085809,-0.052381,0.969409,39520.708589
-0.003593,-0.004868,-0.002373,-0.104212,-0.071241,0.983783,39520.713631
-0.003593,-0.001672,-0.004504,-0.091852,-0.024549,0.992480,39520.718588
-0.005724,-0.002737,-0.002373,-0.056330,0.029742,0.989825,39520.723631
-0.006789,-0.000607,-0.004504,-0.054407,0.029010,0.990649,39520.728584
-0.002528,0.002589,-0.009830,-0.078577,-0.025098,0.980029,39520.733628
-0.009985,-0.001672,-0.006634,-0.094599,-0.053205,0.978381,39520.738588
-0.008919,-0.002737,-0.001308,-0.094415,-0.020246,0.980578,39520.743628
-0.005724,-0.006998,-0.002373,-0.069147,0.016833,1.011523,39520.748586
0.000668,-0.002737,-0.000243,-0.047357,0.027453,0.991198,39520.753626
-0.001462,-0.004868,-0.011961,-0.071802,-0.020337,0.981860,39520.758587
-0.005724,0.001524,-0.006634,-0.091669,-0.055585,0.946429,39520.763627
-0.005724,-0.003803,-0.007700,-0.106500,-0.057508,0.975085,39520.768588
-0.004658,-0.000607,0.001888,-0.070795,0.007861,1.003833,39520.773626
-0.003593,-0.003803,-0.001308,-0.033350,0.031573,1.004107,39520.778588
-0.003593,-0.000607,-0.005569,-0.057428,0.000079,0.988452,39520.783625
-0.006789,-0.003803,-0.005569,-0.089563,-0.052564,0.966479,39520.788587
-0.000397,-0.003803,-0.009830,-0.095331,-0.056501,0.969409,39520.793624
-0.003593,0.000459,-0.004504,-0.083612,-0.015577,0.993854,39520.798590
-0.004658,-0.003803,0.000822,-0.049280,0.032763,0.996325,39520.803622
-0.005724,-0.000607,0.001888,-0.056330,0.012805,0.990558,39520.808622
-0.006789,-0.000607,-0.006634,-0.071161,-0.031415,0.956408,39520.813604
-0.007854,0.001524,-0.007700,-0.098627,-0.075269,0.983233,39520.818612
0.000668,-0.000607,-0.006634,-0.092035,-0.023633,0.992022,39520.823615
-0.001462,-0.003803,-0.004504,-0.058527,0.017840,0.982684,39520.828609
-0.005724,-0.000607,-0.003439,-0.038477,0.020495,0.981860,39520.833603
0.000668,-0.000607,0.002953,-0.074457,-0.026471,0.975818,39520.838616
-0.006789,-0.004868,-0.004504,-0.089746,-0.064374,0.969500,39520.843602
-0.004658,0.000459,-0.004504,-0.086084,-0.052838,0.980121,39520.848616
-0.009985,-0.003803,-0.010896,-0.070429,0.013171,1.004107,39520.853602
-0.005724,-0.004868,-0.001308,-0.049005,0.034411,1.023242,39520.858614
-0.002528,0.000459,-0.005569,-0.056421,-0.003766,0.963824,39520.863600
-0.003593,-0.002737,-0.008765,-0.083887,-0.056684,0.957873,39520.868618
-0.004658,0.002589,-0.007700,-0.096247,-0.057141,0.991473,39520.873603
-0.002528,-0.001672,-0.004504,-0.087824,-0.009351,0.983600,39520.878616
-0.003593,-0.004868,-0.001308,-0.049829,0.021960,0.980304,39520.883600
-0.006789,-0.001672,-0.002373,-0.049921,0.002093,0.969409,39520.888621
-0.001462,0.001524,-0.001308,-0.086359,-0.058149,0.979571,39520.893603
-0.006789,0.001524,-0.005569,-0.089197,-0.065747,0.957049,39520.898618
-0.004658,0.000459,-0.004504,-0.085626,-0.024366,0.976550,39520.903603
-0.006789,0.002589,-0.004504,-0.071253,0.022876,0.998706,39520.908619
0.002799,-0.002737,0.000822,-0.044885,0.021869,0.979937,39520.913602
-0.004658,0.002589,-0.003439,-0.060816,-0.030957,0.986804,39520.918613
-0.005724,0.000459,0.000822,-0.096063,-0.062635,0.982409,39520.923607
-0.000397,-0.004868,-0.002373,-0.095148,-0.040937,0.984057,39520.928616
0.002799,-0.000607,-0.009830,-0.063104,0.013079,0.989001,39520.933603
-0.002528,0.000459,-0.003439,-0.034632,0.026904,0.994952,39520.938588
-0.003593,-0.000607,-0.005569,-0.065302,-0.019330,0.986529,39520.943632
-0.000397,-0.000607,-0.002373,-0.096979,-0.062726,0.952563,39520.948592
-0.006789,0.004720,-0.006634,-0.092676,-0.067670,0.965655,39520.953628
-0.004658,-0.000607,-0.010896,-0.069330,-0.010083,1.007586,39520.958590
-0.004658,-0.002737,-0.002373,-0.051752,0.022967,0.993854,39520.963627
-0.001462,0.000459,0.000822,-0.051935,-0.005140,0.963824,39520.968588
-0.009985,-0.000607,-0.000243,-0.082514,-0.053937,0.963366,39520.973628
-0.007854,0.001524,-0.004504,-0.098078,-0.059980,0.972613,39520.978594
-0.001462,0.003654,-0.009830,-0.080957,-0.021253,1.015368,39520.983626
-0.002528,-0.000607,-0.004504,-0.051752,0.028827,0.979571,39520.988589
-0.001462,0.001524,-0.001308,-0.055139,0.020129,0.986987,39520.993633
-0.003593,-0.001672,-0.000243,-0.081507,-0.041761,0.964282,39520.998589
-0.002528,0.000459,-0.003439,-0.094965,-0.070691,0.979114,39521.003630
-0.006789,0.003654,-0.005569,-0.087366,-0.043775,0.988910,39521.008589
-0.002528,-0.000607,-0.007700,-0.070703,0.010424,0.989825,39521.013629
-0.008919,0.002589,-0.005569,-0.049921,0.014453,0.992846,39521.018593
0.003864,0.000459,-0.003439,-0.058801,-0.024823,0.970599,39521.023635
-0.002528,-0.001672,-0.005569,-0.090479,-0.070142,0.975543,39521.028590
0.000668,0.005785,-0.005569,-0.096796,-0.052381,0.986987,39521.033635
-0.008919,0.001524,-0.009830,-0.074915,0.001635,0.978198,39521.038594
-0.005724,0.004720,-0.004504,-0.051019,0.021502,0.994311,39521.043633
-0.003593,-0.003803,-0.002373,-0.059717,-0.006421,0.992206,39521.048591
-0.006789,-0.002737,-0.002373,-0.085718,-0.072522,0.992572,39521.053627
-0.002528,0.005785,-0.006634,-0.093225,-0.058606,0.971789,39521.058595
-0.006789,0.005785,-0.008765,-0.078760,-0.016034,0.996600,39521.063601
-0.001462,0.000459,-0.010896,-0.054682,0.024981,1.018023,39521.068619
-0.003593,-0.000607,-0.004504,-0.053217,0.007678,0.977923,39521.073601
-0.007854,-0.001672,-0.000243,-0.079035,-0.053388,0.961627,39521.078614
-0.006789,0.005785,-0.004504,-0.102106,-0.079755,0.985248,39521.083604
-0.001462,-0.001672,-0.005569,-0.096338,-0.041120,0.995593,39521.088616
-0.012115,0.005785,-0.008765,-0.058710,0.014819,0.995410,39521.093607
-0.003593,-0.001672,-0.005569,-0.043237,0.020678,0.970141,39521.098622
-0.007854,0.001524,-0.000243,-0.085169,-0.027478,0.992663,39521.103606
-0.005724,-0.000607,-0.001308,-0.102014,-0.056318,0.976184,39521.108620
-0.003593,0.004720,-0.007700,-0.093683,-0.042676,0.978930,39521.113600
-0.005724,0.002589,-0.008765,-0.066950,0.015002,1.019488,39521.118621
0.001733,0.005785,-0.009830,-0.049005,0.033953,1.007037,39521.123609
0.003864,0.003654,-0.005569,-0.070612,-0.013471,0.981494,39521.128619
-0.000397,0.002589,0.001888,-0.090936,-0.068402,0.960711,39521.133606
0.000668,0.002589,0.000822,-0.104761,-0.077283,0.983142,39521.138624
0.001733,0.010046,-0.010896,-0.079218,-0.028211,1.012164,39521.143605
-0.002528,0.003654,-0.005569,-0.045618,0.021685,0.999347,39521.148614
-0.007854,0.000459,-0.006634,-0.060907,-0.008252,0.999438,39521.153604
-0.004658,0.000459,-0.003439,-0.086084,-0.074903,0.992755,39521.158620
-0.009985,0.003654,-0.005569,-0.083063,-0.024457,1.022052,39521.163602
-0.005724,0.001524,-0.000243,-0.065119,0.033770,1.008868,39521.168622
-0.003593,-0.001672,-0.011961,-0.058344,0.014911,0.992297,39521.173609
-0.006789,0.004720,-0.005569,-0.063379,-0.036084,0.976184,39521.178617
-0.004658,-0.001672,-0.007700,-0.096979,-0.078199,0.997424,39521.183622
-0.012115,-0.000607,0.001888,-0.099268,-0.038556,1.001819,39521.188593
-0.004658,0.003654,-0.004504,-0.068048,0.011157,0.983416,39521.193635
-0.005724,-0.001672,-0.009830,-0.043329,0.034777,0.999804,39521.198591
-0.004658,0.006850,-0.006634,-0.063654,-0.012098,0.991382,39521.203630
-0.003593,0.003654,-0.005569,-0.093317,-0.069043,0.977557,39521.208587
-0.000397,0.000459,-0.001308,-0.099634,-0.050458,0.988086,39521.213626
-0.005724,0.001524,-0.003439,-0.083795,-0.009717,1.007220,39521.218591
-0.005724,0.006850,-0.001308,-0.043878,0.020678,1.035968,39521.223641
-0.005724,0.006850,-0.010896,-0.055689,-0.008435,1.015094,39521.228593
-0.001462,0.000459,-0.011961,-0.089288,-0.058789,0.991290,39521.233632
-0.002528,0.002589,-0.004504,-0.094232,-0.070050,0.985614,39521.238596
-0.005724,0.003654,-0.003439,-0.078943,-0.012830,1.017291,39521.243628
-0.006789,0.008981,-0.005569,-0.078943,-0.012830,1.017291,39521.247630
-0.006789,0.008981,-0.005569,-0.051935,0.030749,1.030200,39521.252594
-0.008919,-0.000607,-0.008765,-0.056970,0.007586,0.996234,39521.253650
0.001733,0.002589,-0.008765,-0.081049,-0.043042,0.977282,39521.257633
0.001733,0.002589,-0.008765,-0.093317,-0.072980,0.993945,39521.262593
-0.009985,0.006850,-0.008765,-0.093317,-0.072980,0.993945,39521.263639
-0.005724,0.000459,-0.000243,-0.095789,-0.032788,1.010699,39521.267625
-0.005724,0.000459,0.001888,-0.066309,0.021136,1.010058,39521.272600
-0.003593,0.001524,-0.013026,-0.046716,0.027362,0.995227,39521.277628
-0.004658,0.006850,-0.006634,-0.068781,-0.022901,1.000445,39521.282593
-0.005724,0.004720,-0.010896,-0.095423,-0.062818,0.989642,39521.287633
-0.007854,0.001524,-0.006634,-0.098261,-0.050824,1.003741,39521.292595
0.002799,0.001524,0.001888,-0.070520,0.002459,1.004016,39521.297634
-0.006789,0.000459,-0.003439,-0.045435,0.027179,1.014911,39521.302596
-0.005724,0.006850,-0.006634,-0.059625,-0.011914,1.004931,39521.307636
-0.003593,0.001524,-0.009830,-0.099359,-0.061719,0.998156,39521.312595
-0.004658,-0.001672,-0.007700,-0.105676,-0.066205,0.991382,39521.317633
-0.005724,0.000459,0.000822,-0.080866,-0.015577,1.024432,39521.322623
-0.009985,0.001524,-0.004504,-0.045618,0.031939,1.022235,39521.327605
-0.002528,0.002589,-0.005569,-0.063562,0.006396,1.015002,39521.332625
-0.007854,0.004720,-0.004504,-0.091303,-0.042951,0.973803,39521.337605
-0.005724,0.001524,-0.011961,-0.095148,-0.074903,0.995135,39521.342622
-0.004658,-0.002737,-0.004504,-0.079126,-0.021344,1.018847,39521.347604
-0.008919,-0.000607,-0.000243,-0.058435,0.013995,1.023883,39521.352624
-0.000397,-0.002737,-0.000243,-0.060816,0.014087,0.993213,39521.357605
-0.000397,0.004720,-0.005569,-0.073633,-0.036908,0.964740,39521.362623
-0.006789,0.003654,-0.010896,-0.100824,-0.068402,0.988910,39521.367606
-0.007854,0.001524,-0.009830,-0.108240,-0.046521,1.009326,39521.372625
-0.011050,0.001524,-0.000243,-0.071710,0.015002,1.004565,39521.377609
-0.003593,-0.000607,-0.002373,-0.044153,0.030841,1.021869,39521.382620
-0.005724,0.004720,-0.004504,-0.054498,-0.012830,1.024066,39521.387603
-0.001462,0.006850,-0.006634,-0.093866,-0.061902,1.009784,39521.392623
0.000668,-0.001672,-0.006634,-0.101923,-0.042676,1.004748,39521.397609
-0.003593,0.000459,-0.006634,-0.077204,-0.001752,1.018023,39521.402629
-0.001462,-0.000607,-0.005569,-0.046808,0.024249,1.030658,39521.407606
0.001733,0.004720,-0.001308,-0.056787,0.002917,1.011706,39521.412622
-0.007854,0.000459,-0.011961,-0.091120,-0.066297,0.989184,39521.417605
-0.005724,0.003654,-0.009830,-0.101190,-0.075452,0.984057,39521.422625
-0.005724,-0.001672,-0.011961,-0.085077,-0.027204,1.013080,39521.427604
-0.006789,0.000459,-0.002373,-0.055689,0.026446,1.014911,39521.432613
-0.009985,0.003654,-0.005569,-0.057245,0.015002,0.999255,39521.437604
-0.007854,0.000459,-0.001308,-0.087000,-0.034162,0.984057,39521.442623
-0.006789,0.001524,-0.007700,-0.098169,-0.053754,0.995593,39521.447629
-0.001462,0.000459,-0.013026,-0.080133,-0.029401,1.017749,39521.452598
-0.008919,-0.001672,-0.007700,-0.065759,0.021502,1.040637,39521.457634
-0.002528,0.000459,-0.006634,-0.049097,0.033679,1.003650,39521.462598
-0.001462,-0.001672,0.001888,-0.073725,-0.019880,0.994861,39521.467636
-0.003593,0.000459,-0.007700,-0.096979,-0.063459,0.979205,39521.472597
-0.004658,0.006850,-0.009830,-0.100183,-0.052106,1.011432,39521.477632
-0.005724,-0.003803,-0.009830,-0.072443,0.004474,1.016467,39521.482596
-0.007854,-0.001672,-0.001308,-0.042963,0.025073,0.997149,39521.487633
-0.001462,0.000459,-0.004504,-0.056513,-0.001661,0.993213,39521.492599
-0.004658,0.000459,-0.009830,-0.094415,-0.062909,0.993487,39521.497633
-0.006789,-0.001672,-0.009830,-0.101831,-0.064191,0.984973,39521.502604
-0.007854,0.001524,-0.010896,-0.076929,-0.015577,0.995593,39521.507632
-0.007854,0.000459,-0.005569,-0.054773,0.033221,1.026538,39521.512598
-0.012115,-0.002737,-0.003439,-0.062006,0.012255,1.021686,39521.517632
-0.002528,-0.000607,-0.005569,-0.077387,-0.033063,0.979846,39521.522596
-0.008919,-0.000607,-0.006634,-0.091211,-0.053388,0.991839,39521.527638
-0.006789,0.004720,-0.009830,-0.082056,-0.019513,1.019122,39521.532597
-0.000397,-0.001672,-0.006634,-0.067407,0.032946,1.019031,39521.537636
-0.003593,-0.008064,-0.005569,-0.061548,0.026904,0.986712,39521.542595
0.000668,-0.002737,-0.004504,-0.076471,-0.035443,0.973895,39521.547640
-0.009985,0.002589,-0.004504,-0.087091,-0.069959,0.999621,39521.552597
-0.007854,0.002589,-0.008765,-0.093775,-0.047986,1.014911,39521.557632
-0.006789,0.000459,-0.010896,-0.072351,0.002093,1.000445,39521.562607
-0.007854,-0.002737,-0.005569,-0.050287,0.026812,0.999621,39521.567629
-0.007854,-0.000607,-0.002373,-0.062189,-0.011914,0.989459,39521.572622
-0.004658,0.001524,-0.004504,-0.083338,-0.058973,0.995685,39521.577606
-0.005724,0.002589,-0.009830,-0.092859,-0.042493,1.003924,39521.582624
-0.007854,-0.003803,-0.009830,-0.080866,0.001086,1.012713,39521.587603
-0.006789,-0.001672,-0.007700,-0.050104,0.027911,1.012897,39521.592622
-0.003593,-0.001672,-0.001308,-0.060632,0.004657,1.005847,39521.597602
-0.005724,-0.003803,-0.003439,-0.090845,-0.044782,0.983874,39521.602623
-0.007854,-0.002737,-0.004504,-0.103754,-0.066938,0.973712,39521.607608
-0.003593,0.004720,-0.008765,-0.077387,-0.022718,1.001086,39521.612625
-0.008919,-0.001672,-0.007700,-0.049829,0.025622,1.021869,39521.617611
-0.008919,-0.001672,-0.009830,-0.050470,0.019305,1.002185,39521.622627
-0.007854,-0.003803,-0.000243,-0.081323,-0.038556,0.972430,39521.627601
-0.004658,-0.001672,-0.001308,-0.093500,-0.067395,0.968219,39521.632626
-0.004658,0.003654,-0.007700,-0.084070,-0.032880,1.005298,39521.637605
-0.006789,-0.001672,-0.010896,-0.065943,0.011432,1.013446,39521.642624
-0.008919,-0.001672,-0.007700,-0.056146,0.021685,0.995959,39521.647605
-0.005724,-0.001672,-0.004504,-0.073450,-0.016584,0.980121,39521.652621
-0.008919,-0.001672,-0.001308,-0.090753,-0.059156,0.990008,39521.657607
-0.001462,-0.000607,-0.006634,-0.095239,-0.047071,1.004199,39521.662633
-0.008919,-0.000607,-0.009830,-0.071344,0.003009,1.004107,39521.667605
-0.008919,-0.000607,-0.008765,-0.042413,0.026538,1.003558,39521.672627
-0.007854,-0.000607,-0.004504,-0.052942,-0.008893,0.983874,39521.677607
-0.011050,-0.005933,-0.002373,-0.093591,-0.056501,0.980029,39521.682624
-0.009985,-0.002737,0.001888,-0.096796,-0.060620,0.968127,39521.687604
-0.009985,-0.000607,-0.009830,-0.075739,-0.025830,0.991748,39521.692624
-0.007854,0.001524,-0.009830,-0.058710,0.026721,1.004657,39521.697642
-0.014246,-0.001672,-0.007700,-0.067590,0.004748,0.985431,39521.702601
-0.005724,-0.004868,-0.002373,-0.085626,-0.046247,0.964557,39521.707630
-0.014246,-0.001672,-0.003439,-0.100733,-0.058149,0.968219,39521.712600
-0.004658,0.005785,-0.005569,-0.076929,-0.023450,1.003467,39521.717642
-0.004658,-0.000607,-0.010896,-0.052667,0.025622,1.016284,39521.722600
-0.002528,-0.000607,-0.006634,-0.070337,-0.025373,0.973163,39521.727635
-0.007854,-0.002737,-0.006634,-0.084345,-0.067670,0.972064,39521.732598
-0.001462,0.000459,-0.005569,-0.086176,-0.045423,0.999347,39521.737634
-0.007854,-0.002737,-0.004504,-0.075372,0.004199,0.998523,39521.742602
-0.006789,-0.002737,-0.009830,-0.059717,0.012622,0.979022,39521.747632
-0.011050,0.001524,-0.009830,-0.058344,-0.022718,0.966845,39521.752600
-0.007854,0.002589,-0.009830,-0.077753,-0.066571,0.980853,39521.757635
-0.009985,0.001524,-0.005569,-0.096155,-0.053205,0.991473,39521.762599
-0.007854,-0.000607,-0.001308,-0.079401,-0.002942,0.994494,39521.767635
-0.008919,-0.000607,-0.008765,-0.050195,0.025164,0.989825,39521.772596
-0.009985,0.001524,-0.011961,-0.059809,0.003650,0.997516,39521.777639
-0.005724,0.001524,-0.009830,-0.087732,-0.049085,0.977282,39521.782602
-0.009985,-0.003803,-0.005569,-0.100641,-0.058881,0.969684,39521.787629
-0.009985,-0.003803,-0.000243,-0.083338,-0.017682,0.978290,39521.792599
-0.008919,0.001524,-0.003439,-0.054498,0.024066,0.998523,39521.797632
-0.007854,0.002589,-0.007700,-0.063471,0.012164,0.988635,39521.802600
-0.009985,0.001524,-0.013026,-0.082971,-0.036908,0.959613,39521.807630
-0.011050,-0.000607,-0.010896,-0.090845,-0.061902,0.956134,39521.812610
-0.012115,-0.002737,-0.003439,-0.081232,-0.032422,0.990191,39521.817636
-0.005724,-0.000607,-0.002373,-0.062006,0.011248,0.997333,39521.822614
-0.006789,-0.000607,-0.009830,-0.063104,0.018023,0.982318,39521.827609
-0.012115,0.003654,-0.003439,-0.081964,-0.031232,0.952289,39521.832626
-0.013180,0.003654,-0.009830,-0.087549,-0.067304,0.967120,39521.837608
-0.011050,0.002589,-0.005569,-0.082605,-0.052381,0.997516,39521.842624
-0.007854,0.000459,-0.000243,-0.072443,0.009234,1.000903,39521.847609
-0.007854,0.000459,-0.004504,-0.056330,0.029193,0.985980,39521.852631
-0.007854,0.005785,-0.007700,-0.056604,-0.005963,0.974994,39521.857615
-0.012115,0.003654,-0.011961,-0.083154,-0.055494,0.980853,39521.862624
-0.007854,0.000459,-0.010896,-0.097894,-0.053388,0.983691,39521.866623
-0.007854,0.000459,-0.010896,-0.073450,-0.011640,0.981860,39521.871597
-0.002528,0.000459,-0.003439,-0.073450,-0.011640,0.981860,39521.872633
-0.007854,0.001524,-0.003439,-0.057520,0.017016,0.993579,39521.876622
-0.012115,0.006850,-0.008765,-0.058985,-0.000287,0.992755,39521.881601
-0.003593,0.003654,-0.008765,-0.083338,-0.055585,0.974536,39521.886623
-0.017441,0.003654,-0.008765,-0.096887,-0.067212,0.960620,39521.891597
-0.013180,-0.000607,-0.005569,-0.074732,-0.023359,0.979114,39521.896623
-0.011050,0.002589,-0.000243,-0.054224,0.022326,1.000720,39521.901600
-0.007854,0.004720,-0.004504,-0.054956,0.015643,0.999896,39521.906623
-0.011050,0.002589,-0.007700,-0.077661,-0.026654,0.961535,39521.911608
-0.006789,0.004720,-0.006634,-0.094782,-0.058240,0.967944,39521.916623
-0.011050,0.002589,-0.011961,-0.085718,-0.039838,0.989184,39521.921604
-0.006789,0.002589,0.000822,-0.060632,0.006396,1.013721,39521.926626
-0.011050,0.000459,-0.003439,-0.057794,0.023608,0.997882,39521.931596
-0.008919,0.004720,-0.008765,-0.071619,-0.031415,0.974719,39521.936626
-0.007854,0.005785,-0.015157,-0.083063,-0.065015,0.969134,39521.941603
-0.009985,0.005785,-0.011961,-0.095697,-0.048352,0.985614,39521.946599
-0.008919,0.000459,-0.004504,-0.074732,-0.007337,0.990466,39521.951630
-0.012115,-0.003803,-0.002373,-0.057886,0.019763,0.977191,39521.956597
-0.006789,0.002589,-0.002373,-0.063654,-0.006421,0.986255,39521.961626
-0.016376,0.006850,-0.013026,-0.089655,-0.056775,0.975726,39521.966600
-0.012115,0.003654,-0.009830,-0.105310,-0.061444,0.978564,39521.971629
-0.013180,0.003654,-0.009830,-0.079492,-0.005048,0.985705,39521.976600
-0.011050,0.001524,-0.006634,-0.049188,0.023150,1.002368,39521.981629
-0.011050,0.005785,0.000822,-0.059992,0.016284,1.007312,39521.986598
-0.006789,0.003654,-0.008765,-0.090021,-0.048169,0.970416,39521.991632
-0.006789,0.005785,-0.006634,-0.085718,-0.063733,0.954394,39521.996595
-0.014246,0.004720,-0.010896,-0.076929,-0.034253,0.996234,39522.001626
-0.004658,0.000459,-0.008765,-0.049463,0.011798,1.001636,39522.006598
-0.006789,0.003654,-0.004504,-0.062738,0.008868,0.988910,39522.011624
-0.011050,0.000459,-0.002373,-0.088556,-0.042035,0.956500,39522.016596
-0.013180,0.004720,-0.009830,-0.097070,-0.081220,0.959247,39522.021630
-0.014246,0.007915,-0.010896,-0.084711,-0.045514,0.984149,39522.026595
-0.011050,0.005785,-0.007700,-0.064752,0.006305,1.007861,39522.031626
-0.015311,0.000459,-0.000243,-0.051203,0.027636,0.991107,39522.036598
-0.012115,0.002589,-0.001308,-0.065119,-0.009626,0.992755,39522.041634
-0.007854,0.006850,-0.008765,-0.076288,-0.053022,0.993945,39522.046599
-0.011050,0.002589,-0.010896,-0.087000,-0.054578,0.988910,39522.051633
-0.008919,0.003654,-0.008765,-0.076105,0.003924,0.981219,39522.056601
-0.007854,0.000459,-0.005569,-0.050836,0.015460,0.981952,39522.061628
-0.006789,0.003654,-0.006634,-0.061182,-0.009809,0.988543,39522.066597
-0.015311,0.004720,-0.002373,-0.091577,-0.065564,0.973163,39522.071610
-0.011050,0.007915,-0.009830,-0.099359,-0.071057,0.963550,39522.076618
-0.012115,0.005785,-0.008765,-0.085169,-0.022535,0.986529,39522.081601
-0.014246,0.006850,-0.009830,-0.047540,0.027453,1.002093,39522.086626
-0.008919,0.005785,-0.002373,-0.052118,0.009692,1.014270,39522.091599
-0.008919,0.000459,-0.002373,-0.088831,-0.046796,0.983966,39522.096626
-0.007854,0.005785,-0.007700,-0.094782,-0.068952,0.969226,39522.101601
-0.013180,0.004720,-0.009830,-0.075739,-0.038099,0.983325,39522.106630
-0.012115,0.003654,-0.011961,-0.068964,0.001727,1.012530,39522.111603
-0.007854,-0.001672,-0.005569,-0.057886,0.011340,0.979663,39522.116626
-0.011050,-0.000607,-0.002373,-0.076563,-0.035993,0.972613,39522.121603
-0.008919,0.001524,-0.004504,-0.094049,-0.077558,0.958514,39522.126630
-0.009985,0.007915,-0.009830,-0.087000,-0.052198,0.981311,39522.131604
-0.014246,0.004720,-0.014091,-0.073541,0.010333,0.979297,39522.136622
-0.004658,0.002589,-0.006634,-0.058801,0.018206,0.979937,39522.141600
-0.012115,0.004720,-0.003439,-0.068506,-0.013379,0.974719,39522.146622
-0.011050,0.004720,-0.003439,-0.094324,-0.063733,0.968127,39522.151602
-0.007854,0.004720,-0.010896,-0.106409,-0.068860,0.969592,39522.156625
-0.008919,0.008981,-0.008765,-0.083429,-0.012281,0.981677,39522.161601
-0.012115,0.005785,-0.005569,-0.043695,0.029376,0.992297,39522.166627
-0.006789,0.006850,-0.006634,-0.048914,0.003100,1.003192,39522.171601
-0.008919,0.001524,-0.002373,-0.091303,-0.053022,0.982135,39522.176618
-0.004658,0.005785,-0.003439,-0.103296,-0.060346,0.956592,39522.181602
-0.004658,0.006850,-0.007700,-0.081232,-0.034894,0.968402,39522.186627
-0.007854,0.007915,-0.009830,-0.052667,0.008502,1.006488,39522.191601
-0.007854,0.001524,-0.008765,-0.058618,0.003283,1.004565,39522.196603
-0.011050,0.002589,-0.002373,-0.088831,-0.060346,0.971057,39522.201628
-0.012115,0.000459,-0.004504,-0.100275,-0.082502,0.956500,39522.206595
-0.009985,0.006850,-0.011961,-0.091760,-0.055860,0.977923,39522.211634
-0.006789,0.006850,-0.007700,-0.064478,0.011798,0.997882,39522.216597
-0.008919,0.003654,-0.010896,-0.053858,0.023150,0.994586,39522.221626
-0.008919,0.001524,-0.006634,-0.073633,-0.017865,0.970508,39522.226600
-0.009985,0.007915,0.002953,-0.091852,-0.071973,0.970691,39522.231633
-0.011050,0.002589,-0.008765,-0.097986,-0.052564,0.975085,39522.236601
-0.008919,0.000459,-0.010896,-0.073908,-0.004865,0.991839,39522.241631
-0.011050,0.005785,-0.009830,-0.061823,0.022143,0.981311,39522.246595
-0.011050,0.004720,-0.009830,-0.074549,-0.010083,0.970599,39522.251624
-0.011050,0.003654,-0.001308,-0.093134,-0.072522,0.969317,39522.256599
-0.007854,0.002589,-0.002373,-0.107874,-0.079114,0.952014,39522.261628
-0.006789,0.005785,-0.006634,-0.097620,-0.029584,0.964923,39522.266600
-0.011050,0.010046,-0.008765,-0.054407,0.011432,0.980121,39522.271635
-0.009985,0.007915,-0.006634,-0.059625,0.006305,1.005755,39522.276597
-0.008919,-0.002737,-0.010896,-0.085626,-0.042768,0.985980,39522.281631
-0.008919,0.003654,0.002953,-0.102289,-0.073804,0.962451,39522.286596
-0.006789,0.006850,-0.006634,-0.068323,0.008685,1.005115,39522.291628
-0.004658,0.008981,-0.011961,-0.058801,0.018115,0.993121,39522.296597
-0.005724,0.002589,-0.011961,-0.082880,-0.043958,0.969592,39522.301639
-0.008919,0.006850,-0.006634,-0.084528,-0.086347,0.946979,39522.306599
-0.008919,0.003654,-0.007700,-0.093866,-0.068494,1.001269,39522.311632
-0.006789,0.007915,-0.004504,-0.064020,-0.001752,0.989184,39522.316599
-0.007854,0.004720,-0.007700,-0.047357,0.009784,0.990191,39522.321608
-0.012115,0.007915,-0.011961,-0.067499,-0.022992,0.972247,39522.326625
-0.004658,0.010046,-0.009830,-0.095331,-0.081678,0.979480,39522.331602
-0.009985,0.005785,-0.008765,-0.097254,-0.069318,0.972705,39522.336625
-0.012115,0.004720,-0.003439,-0.086725,-0.024457,0.986712,39522.341600
-0.009985,0.006850,-0.006634,-0.042505,0.021136,1.006213,39522.346629
-0.007854,0.006850,-0.010896,-0.044611,-0.001935,1.021594,39522.351603
-0.006789,0.005785,-0.010896,-0.082788,-0.059522,0.993579,39522.356632
-0.006789,0.003654,-0.008765,-0.102381,-0.080304,0.970874,39522.361605
-0.007854,0.003654,-0.007700,-0.089929,-0.034803,0.962085,39522.366626
-0.005724,-0.000607,-0.002373,-0.054682,-0.002576,1.009692,39522.371600
-0.005724,0.006850,-0.010896,-0.043054,0.009234,1.000171,39522.376618
-0.013180,0.002589,-0.008765,-0.088373,-0.057141,0.982318,39522.381606
-0.008919,0.003654,-0.007700,-0.093958,-0.082410,0.956500,39522.386625
-0.014246,0.002589,-0.008765,-0.094049,-0.063001,0.992206,39522.391604
-0.008919,0.004720,-0.003439,-0.059442,0.011523,1.001910,39522.396628
-0.009985,0.004720,-0.005569,-0.058527,0.011889,1.015552,39522.401661
-0.013180,0.005785,-0.009830,-0.072077,-0.019880,0.973712,39522.406628
-0.006789,0.007915,-0.009830,-0.086817,-0.074079,0.981311,39522.411603
-0.014246,0.003654,-0.006634,-0.093317,-0.067395,0.989276,39522.416627
-0.005724,0.003654,-0.005569,-0.075739,-0.018048,1.005939,39522.421600
-0.001462,0.001524,-0.002373,-0.050195,0.016833,0.995685,39522.426620
-0.009985,0.007915,-0.009830,-0.062097,-0.021619,0.985522,39522.431601
-0.007854,0.006850,-0.013026,-0.094049,-0.081128,0.976642,39522.436608
-0.011050,0.006850,-0.010896,-0.113275,-0.081220,0.970691,39522.441626
-0.014246,0.000459,-0.004504,-0.092584,-0.030317,0.973620,39522.446601
-0.011050,0.001524,-0.005569,-0.048639,0.010058,0.999804,39522.451635
-0.011050,0.005785,-0.006634,-0.045160,0.005481,1.018481,39522.456596
-0.008919,0.006850,-0.009830,-0.091669,-0.057141,0.993487,39522.461634
-0.011050,0.004720,-0.014091,-0.104120,-0.081037,0.954760,39522.466602
-0.007854,0.006850,-0.009830,-0.098993,-0.048902,0.980670,39522.471629
-0.011050,0.003654,-0.005569,-0.068323,0.007312,1.006305,39522.475642
-0.006789,0.003654,-0.008765,-0.056604,0.012805,1.016559,39522.480633
-0.008919,0.002589,-0.007700,-0.079492,-0.038190,0.989093,39522.485639
-0.011050,0.006850,-0.011961,-0.094873,-0.085706,0.981952,39522.490623
-0.004658,0.002589,-0.007700,-0.094049,-0.062543,0.990375,39522.495649
-0.004658,0.005785,-0.008765,-0.074732,-0.012098,0.996783,39522.500629
-0.002528,-0.000607,-0.004504,-0.062372,0.010058,0.999713,39522.505640
-0.009985,0.004720,-0.008765,-0.077295,-0.023450,0.996692,39522.510630
-0.009985,0.008981,-0.013026,-0.093591,-0.089917,0.978839,39522.515650
-0.011050,0.005785,-0.014091,-0.096155,-0.079847,0.996142,39522.520627
-0.012115,0.002589,-0.006634,-0.096430,-0.019513,1.019397,39522.525648
-0.013180,0.002589,-0.004504,-0.058618,0.012622,1.005664,39522.530631
-0.004658,0.001524,-0.013026,-0.040857,-0.008344,1.013812,39522.535647
-0.013180,0.005785,-0.004504,-0.075922,-0.065656,1.012713,39522.540628
-0.008919,0.001524,-0.010896,-0.109522,-0.076184,0.996875,39522.545641
-0.004658,0.002589,-0.008765,-0.113916,-0.034803,0.954028,39522.550643
-0.006789,0.000459,-0.007700,-0.051752,0.019946,0.984057,39522.555645
-0.014246,0.003654,-0.002373,-0.040033,0.001910,1.043841,39522.560641
-0.004658,-0.000607,-0.008765,-0.093591,-0.053571,1.017383,39522.565615
-0.006789,0.005785,-0.008765,-0.110895,-0.088910,0.946155,39522.570659
-0.004658,0.006850,-0.014091,-0.100458,-0.071057,0.974536,39522.575613
-0.013180,0.008981,-0.013026,-0.060724,-0.010175,1.032672,39522.580649
-0.006789,0.003654,-0.003439,-0.046442,0.016101,1.041644,39522.585613
-0.009985,0.006850,-0.007700,-0.069055,-0.015393,0.991931,39522.590654
-0.007854,0.004720,-0.011961,-0.094415,-0.071424,1.000995,39522.595622
-0.012115,0.005785,-0.008765,-0.094324,-0.060437,1.030292,39522.600655
-0.004658,0.003654,-0.013026,-0.066583,-0.022992,1.044940,39522.605612
-0.007854,-0.001672,-0.006634,-0.046442,0.010516,1.009601,39522.610652
-0.002528,0.001524,-0.004504,-0.075372,-0.021985,1.011523,39522.615618
-0.004658,0.003654,-0.006634,-0.103754,-0.078015,0.999713,39522.620659
-0.007854,0.007915,-0.013026,-0.101190,-0.083966,0.998889,39522.625621
-0.018507,0.001524,-0.010896,-0.071985,-0.031873,1.003924,39522.630661
-0.012115,0.003654,-0.011961,-0.051660,0.011432,1.044848,39522.635616
-0.000397,-0.001672,-0.003439,-0.045252,0.012622,1.018023,39522.640656
-0.005724,0.000459,-0.005569,-0.084711,-0.053662,0.993304,39522.645615
-0.003593,-0.000607,-0.007700,-0.117304,-0.081952,0.980761,39522.650658
-0.012115,0.000459,-0.010896,-0.109339,-0.055585,0.993487,39522.655613
-0.012115,0.004720,-0.011961,-0.058801,0.005938,1.010791,39522.660650
-0.011050,0.004720,-0.007700,-0.054132,0.027362,1.042193,39522.665613
-0.004658,-0.001672,-0.001308,-0.083795,-0.030774,1.026172,39522.670655
-0.002528,0.001524,-0.006634,-0.099268,-0.084790,1.004657,39522.675642
-0.003593,0.007915,-0.019418,-0.097620,-0.059247,1.008044,39522.680626
-0.007854,0.007915,-0.009830,-0.071527,-0.009717,1.025989,39522.685639
-0.011050,0.001524,-0.007700,-0.057062,0.021777,1.037982,39522.690631
-0.009985,0.000459,-0.006634,-0.064844,-0.011090,1.012622,39522.695648
-0.004658,0.000459,-0.008765,-0.081781,-0.077466,1.001819,39522.700627
-0.004658,0.004720,-0.005569,-0.101373,-0.087812,1.014544,39522.705641
-0.004658,0.001524,-0.016222,-0.095697,-0.025922,1.005664,39522.710628
-0.011050,-0.000607,-0.007700,-0.060999,0.011432,0.997699,39522.715645
-0.016376,0.001524,-0.004504,-0.053400,-0.001203,1.006396,39522.720630
-0.011050,0.004720,-0.005569,-0.089472,-0.058515,1.014819,39522.725648
-0.005724,0.002589,-0.005569,-0.107050,-0.070966,0.994220,39522.730625
-0.007854,0.001524,-0.011961,-0.102106,-0.029493,1.008868,39522.735644
-0.001462,0.007915,-0.014091,-0.050470,0.017291,1.047320,39522.740624
-0.002528,0.004720,-0.010896,-0.032343,0.023242,1.068561,39522.745643
-0.005724,-0.003803,-0.005569,-0.077478,-0.043775,1.025531,39522.750628
-0.004658,-0.001672,-0.006634,-0.110254,-0.096418,0.975635,39522.755636
-0.005724,0.001524,-0.004504,-0.115564,-0.072614,0.999164,39522.760629
-0.008919,0.002589,-0.018352,-0.055963,-0.012098,1.030658,39522.765650
-0.009985,0.002589,-0.009830,-0.037836,-0.001294,1.036151,39522.770628
-0.012115,-0.002737,-0.007700,-0.071161,-0.024457,1.010699,39522.775644
-0.012115,0.000459,-0.002373,-0.103479,-0.089734,0.990283,39522.780625
-0.007854,0.002589,-0.006634,-0.091944,-0.070966,0.986987,39522.785644
-0.012115,0.000459,-0.004504,-0.085260,-0.007795,1.027728,39522.790625
-0.011050,0.000459,-0.013026,-0.070337,0.029467,1.014544,39522.795651
-0.007854,0.004720,-0.007700,-0.067774,0.008502,1.019397,39522.800629
-0.004658,0.001524,-0.000243,-0.090936,-0.048078,1.011157,39522.805645
0.003864,0.000459,-0.002373,-0.101373,-0.065107,1.027545,39522.810642
0.001733,0.000459,-0.008765,-0.105676,-0.024274,1.015735,39522.815617
0.002799,0.003654,-0.007700,-0.065668,0.020678,1.010882,39522.820661
-0.001462,0.004720,-0.010896,-0.038843,0.002276,1.033862,39522.825626
0.002799,0.000459,-0.007700,-0.078851,-0.067121,1.022967,39522.830650
-0.002528,-0.002737,-0.005569,-0.102197,-0.095777,1.003650,39522.835616
-0.009985,0.002589,-0.008765,-0.098261,-0.069867,0.989093,39522.840653
-0.009985,0.000459,-0.009830,-0.062464,0.004016,1.038257,39522.845617
-0.009985,0.003654,-0.014091,-0.044794,0.012439,1.059131,39522.850656
-0.009985,-0.003803,-0.006634,-0.066492,-0.035352,1.035968,39522.855613
-0.011050,-0.005933,-0.000243,-0.110163,-0.054944,1.019488,39522.860653
-0.007854,-0.001672,-0.011961,-0.081049,0.002185,1.020495,39522.865611
-0.004658,-0.002737,-0.010896,-0.044061,0.029651,1.019671,39522.870657
-0.009985,0.000459,-0.014091,-0.064386,-0.002301,1.021411,39522.875619
-0.008919,-0.001672,-0.010896,-0.106317,-0.072522,0.980212,39522.880653
-0.003593,-0.001672,-0.009830,-0.105768,-0.077466,0.976825,39522.885615
-0.008919,0.000459,-0.000243,-0.091669,-0.029493,0.999164,39522.890658
-0.001462,-0.001672,-0.008765,-0.063471,0.014819,1.024615,39522.895622
-0.004658,0.003654,-0.015157,-0.058344,-0.001020,1.002551,39522.900661
-0.007854,0.005785,-0.011961,-0.093317,-0.059064,1.005115,39522.905618
-0.012115,0.003654,-0.010896,-0.110712,-0.072339,1.008319,39522.910656
-0.006789,-0.002737,-0.002373,-0.097803,-0.033063,1.029376,39522.915619
-0.003593,-0.001672,-0.005569,-0.046991,0.017474,1.047595,39522.920658
-0.004658,0.002589,-0.011961,-0.042413,0.018847,1.056842,39522.925626
-0.004658,0.007915,-0.013026,-0.088556,-0.025098,1.041553,39522.930654
-0.000397,0.002589,-0.010896,-0.110620,-0.084150,0.994769,39522.935617
-0.000397,-0.000607,-0.010896,-0.094232,-0.074903,0.992755,39522.940655
-0.001462,-0.001672,-0.008765,-0.057337,-0.000928,1.023883,39522.945650
-0.006789,0.002589,-0.005569,-0.046442,0.010424,1.028277,39522.950629
-0.004658,0.000459,-0.011961,-0.077844,-0.026563,0.993762,39522.955643
-0.011050,-0.000607,-0.009830,-0.099726,-0.082593,0.968127,39522.960639
-0.007854,0.000459,-0.016222,-0.092218,-0.075727,0.998156,39522.965643
-0.006789,0.000459,-0.003439,-0.067133,-0.013929,1.030017,39522.970627
-0.008919,-0.001672,-0.004504,-0.053400,0.038531,1.012622,39522.975642
-0.008919,-0.002737,-0.009830,-0.066034,0.016009,0.999347,39522.980625
-0.004658,0.002589,-0.010896,-0.090204,-0.065839,1.013171,39522.985649
-0.001462,-0.000607,-0.011961,-0.095056,-0.078931,1.016284,39522.990627
-0.002528,-0.002737,-0.001308,-0.087732,-0.036725,1.021136,39522.995647
-0.007854,-0.009129,-0.007700,-0.062830,0.013354,1.012805,39523.000629
-0.001462,-0.002737,-0.009830,-0.048273,0.011432,1.011340,39523.005647
-0.005724,-0.001672,-0.016222,-0.077570,-0.051374,1.002643,39523.010630
-0.004658,0.001524,-0.014091,-0.107874,-0.096418,0.984515,39523.015646
-0.011050,-0.003803,-0.009830,-0.098352,-0.064099,0.978381,39523.020630
-0.009985,-0.004868,-0.003439,-0.060816,0.006030,0.985064,39523.025649
-0.007854,-0.001672,-0.003439,-0.055780,0.023883,1.012347,39523.030631
-0.005724,0.002589,-0.008765,-0.091760,-0.012922,0.988635,39523.035649
-0.008919,-0.000607,-0.015157,-0.115381,-0.068952,0.978564,39523.040636
-0.007854,0.004720,-0.010896,-0.103479,-0.056226,0.986804,39523.045648
-0.006789,0.002589,-0.006634,-0.071619,0.006945,1.022235,39523.050630
-0.000397,-0.000607,-0.001308,-0.040674,0.049151,1.035876,39523.055643
0.004929,0.000459,-0.008765,-0.061273,0.007586,1.009509,39523.060631
0.000668,0.003654,-0.010896,-0.100549,-0.068494,0.980212,39523.065652
0.002799,0.002589,-0.011961,-0.105860,-0.092298,0.982776,39523.070642
-0.001462,0.003654,-0.009830,-0.082147,-0.046430,0.996325,39523.075621
-0.008919,-0.003803,-0.006634,-0.050012,0.003650,1.016467,39523.080656
-0.011050,-0.001672,-0.006634,-0.045709,-0.007062,1.000720,39523.084639
-0.011050,-0.001672,-0.006634,-0.080499,-0.076368,1.000720,39523.089613
-0.008919,0.000459,-0.007700,-0.080499,-0.076368,1.000720,39523.090659
-0.009985,0.000459,-0.011961,-0.095514,-0.088086,0.983691,39523.094636
-0.014246,-0.001672,-0.013026,-0.100000,-0.042951,0.984973,39523.099615
-0.015311,-0.005933,-0.007700,-0.060449,0.021045,0.993670,39523.104643
-0.014246,-0.003803,-0.004504,-0.039850,0.038073,1.004840,39523.109617
-0.014246,-0.003803,-0.006634,-0.072717,-0.012738,1.000354,39523.114636
-0.005724,-0.002737,-0.008765,-0.105676,-0.072339,0.982226,39523.119613
-0.005724,-0.002737,-0.016222,-0.101557,-0.055036,0.968860,39523.124636
0.003864,0.000459,-0.010896,-0.065302,-0.002668,0.974444,39523.129617
-0.000397,-0.001672,-0.007700,-0.050287,0.029559,0.985797,39523.134638
-0.003593,-0.002737,-0.004504,-0.083429,-0.015943,0.961718,39523.139614
-0.003593,0.000459,-0.013026,-0.108148,-0.077832,0.937732,39523.144643
-0.008919,0.006850,-0.014091,-0.093500,-0.089276,0.967120,39523.149613
-0.006789,0.005785,-0.011961,-0.069330,-0.020063,1.010058,39523.154640
-0.006789,0.000459,-0.013026,-0.043421,0.024707,1.027545,39523.159616
-0.001462,-0.001672,-0.007700,-0.051752,0.012988,0.993396,39523.164635
-0.002528,0.002589,-0.005569,-0.095606,-0.049451,0.983508,39523.169615
-0.005724,0.000459,-0.014091,-0.096704,-0.076368,0.996509,39523.174644
-0.005724,0.003654,-0.010896,-0.084986,-0.038007,1.010516,39523.179615
-0.012115,-0.000607,-0.008765,-0.056604,0.021502,0.999438,39523.184636
-0.003593,-0.005933,0.000822,-0.041864,0.017016,1.005572,39523.189641
-0.000397,0.001524,-0.007700,-0.078119,-0.041120,0.980670,39523.194614
0.000668,-0.002737,-0.007700,-0.104852,-0.078748,0.947986,39523.199650
-0.006789,-0.002737,-0.014091,-0.110620,-0.061994,0.940478,39523.204612
-0.007854,-0.005933,-0.013026,-0.066858,-0.003858,0.967395,39523.209645
-0.013180,0.001524,-0.005569,-0.038568,0.019397,0.980304,39523.214615
-0.012115,-0.001672,-0.005569,-0.079767,-0.018598,0.977923,39523.219642
-0.012115,-0.000607,-0.006634,-0.112543,-0.071149,0.967578,39523.224613
-0.009985,-0.001672,-0.008765,-0.099726,-0.060620,0.966021,39523.229645
-0.006789,0.002589,-0.016222,-0.064386,0.004657,0.995410,39523.234618
-0.008919,0.002589,-0.009830,-0.042230,0.044940,1.015185,39523.239644
-0.005724,-0.006998,-0.007700,-0.060816,0.008227,0.982501,39523.244614
-0.006789,-0.004868,-0.005569,-0.099726,-0.059705,0.955859,39523.249645
0.000668,-0.001672,-0.008765,-0.106775,-0.074536,0.953937,39523.254614
-0.007854,0.002589,-0.014091,-0.090662,-0.037824,0.975635,39523.259639
-0.004658,0.000459,-0.010896,-0.063471,0.013446,0.971148,39523.264608
-0.009985,-0.001672,-0.005569,-0.059351,0.013537,0.964831,39523.269646
-0.005724,0.003654,-0.008765,-0.097345,-0.047254,0.944690,39523.274611
-0.007854,0.002589,-0.006634,-0.107782,-0.072065,0.950824,39523.279643
-0.004658,0.008981,-0.013026,-0.099634,-0.035260,0.971881,39523.284609
-0.012115,0.004720,-0.014091,-0.066217,0.026538,0.993213,39523.289644
-0.007854,0.006850,-0.010896,-0.041132,0.040362,0.997790,39523.294617
-0.007854,0.006850,-0.003439,-0.070520,-0.009626,0.992389,39523.299645
-0.002528,0.001524,-0.002373,-0.103296,-0.061536,0.977191,39523.304613
0.001733,0.001524,-0.011961,-0.104486,-0.065747,0.968951,39523.309648
-0.005724,0.002589,-0.013026,-0.057337,-0.002301,0.982867,39523.314638
-0.007854,0.004720,-0.011961,-0.036188,0.022326,1.010150,39523.319618
-0.007854,-0.003803,-0.008765,-0.061456,-0.015485,0.994769,39523.324641
0.000668,-0.002737,-0.003439,-0.106043,-0.080945,0.954944,39523.329619
-0.003593,-0.000607,-0.010896,-0.096063,-0.082135,0.949176,39523.334639
-0.009985,0.002589,-0.007700,-0.069330,-0.031140,0.990100,39523.339620
-0.014246,-0.000607,-0.008765,-0.055048,0.021960,1.006671,39523.344636
-0.015311,-0.001672,-0.010896,-0.058069,0.015551,0.983508,39523.349617
-0.014246,-0.001672,-0.002373,-0.084802,-0.046521,0.971881,39523.354639
-0.012115,0.001524,-0.009830,-0.098352,-0.058789,0.976916,39523.359613
-0.006789,-0.001672,-0.010896,-0.091486,-0.021527,0.990649,39523.364637
-0.000397,0.002589,-0.010896,-0.051386,0.037982,0.987170,39523.369620
-0.005724,0.001524,-0.011961,-0.052667,0.038623,0.983691,39523.374634
-0.003593,0.003654,-0.013026,-0.087641,-0.025464,0.967395,39523.379617
0.000668,-0.000607,-0.003439,-0.106867,-0.082959,0.969134,39523.384639
-0.002528,0.002589,-0.004504,-0.091303,-0.062360,0.956225,39523.389612
-0.006789,0.005785,-0.010896,-0.063654,-0.004132,0.992206,39523.394646
-0.007854,0.006850,-0.014091,-0.043878,0.022693,0.991107,39523.399619
-0.014246,0.004720,-0.008765,-0.071710,-0.014112,0.992938,39523.404638
-0.014246,-0.000607,-0.003439,-0.099451,-0.061170,0.966296,39523.409693
-0.011050,0.002589,-0.002373,-0.104486,-0.068952,0.983416,39523.414635
-0.011050,0.004720,-0.011961,-0.057520,-0.007154,1.018390,39523.419612
0.000668,0.008981,-0.014091,-0.036646,0.034228,1.042926,39523.424639
-0.011050,0.003654,-0.014091,-0.099451,-0.063276,0.983142,39523.429635
-0.000397,0.000459,-0.010896,-0.105036,-0.077924,0.958423,39523.434612
-0.006789,0.000459,-0.003439,-0.090479,-0.042401,0.984607,39523.439640
-0.006789,0.003654,-0.005569,-0.059534,0.005938,0.990741,39523.444611
-0.011050,0.001524,-0.017287,-0.059809,0.006945,0.996692,39523.449652
-0.014246,0.005785,-0.009830,-0.082697,-0.050000,0.974811,39523.454609
-0.015311,0.003654,-0.009830,-0.097345,-0.083509,0.984332,39523.459638
-0.015311,0.003654,-0.007700,-0.099268,-0.044049,1.006671,39523.464611
-0.012115,-0.000607,-0.003439,-0.063379,0.019854,1.014361,39523.469640
-0.014246,0.003654,-0.007700,-0.046259,0.040912,1.011523,39523.474614
-0.009985,0.005785,-0.017287,-0.071070,-0.001477,1.022235,39523.479640
-0.009985,0.003654,-0.009830,-0.103937,-0.065473,1.010425,39523.484611
-0.006789,0.000459,-0.006634,-0.106317,-0.072522,0.979114,39523.489646
-0.007854,-0.001672,-0.003439,-0.081598,-0.017682,0.996875,39523.494612
-0.009985,0.001524,-0.000243,-0.042963,0.014178,1.021960,39523.499643
-0.005724,0.005785,-0.015157,-0.069422,-0.010266,1.003284,39523.504613
-0.009985,0.003654,-0.008765,-0.111353,-0.077375,0.955401,39523.509652
-0.016376,-0.000607,-0.007700,-0.103479,-0.082959,0.967212,39523.514611
-0.014246,0.004720,-0.004504,-0.084345,-0.031232,1.010150,39523.519642
-0.008919,0.000459,-0.004504,-0.046900,0.033587,1.026446,39523.524613
-0.011050,0.006850,-0.006634,-0.058435,0.020495,1.030566,39523.529644
-0.009985,0.004720,-0.011961,-0.097437,-0.034803,1.002917,39523.534613
-0.008919,0.007915,-0.010896,-0.101465,-0.070966,1.004016,39523.539642
-0.011050,0.003654,-0.007700,-0.097070,-0.039472,1.014728,39523.544614
-0.003593,0.000459,-0.004504,-0.072260,0.017199,1.038074,39523.549645
-0.006789,0.000459,-0.008765,-0.049005,0.019488,1.026904,39523.554611
-0.009985,0.005785,-0.008765,-0.072168,-0.030866,1.022601,39523.559645
-0.004658,0.004720,-0.014091,-0.095972,-0.083692,1.005206,39523.564613
-0.001462,0.002589,-0.013026,-0.096979,-0.072889,1.005481,39523.569650
-0.006789,-0.002737,-0.005569,-0.082514,-0.018048,1.008960,39523.574640
-0.012115,-0.000607,-0.006634,-0.046442,0.021045,1.018664,39523.579620
-0.019572,0.001524,-0.006634,-0.061365,-0.023450,1.033587,39523.584642
-0.017441,0.002589,-0.013026,-0.113001,-0.069318,1.020770,39523.589617
-0.014246,0.000459,-0.008765,-0.115747,-0.074536,1.004016,39523.594639
-0.018507,-0.000607,-0.009830,-0.079401,-0.024457,1.021777,39523.599620
-0.014246,-0.000607,-0.001308,-0.046533,0.030841,1.061969,39523.604633
-0.012115,-0.001672,-0.001308,-0.056513,0.021502,1.051898,39523.609617
-0.007854,0.002589,-0.010896,-0.098169,-0.051191,0.995776,39523.614642
-0.008919,0.001524,-0.008765,-0.109979,-0.078656,0.993762,39523.619621
-0.015311,0.003654,-0.011961,-0.084986,-0.044416,1.024066,39523.624644
-0.012115,0.001524,-0.010896,-0.062189,0.008319,1.045764,39523.629619
-0.004658,-0.002737,-0.001308,-0.064295,0.013720,1.020495,39523.634640
-0.007854,0.001524,-0.009830,-0.088831,-0.048078,1.002551,39523.639620
-0.011050,0.007915,-0.009830,-0.109522,-0.093946,1.008502,39523.644643
-0.017441,0.004720,-0.014091,-0.087000,-0.069776,1.040179,39523.649620
-0.011050,-0.001672,-0.008765,-0.073084,-0.002301,1.040362,39523.654644
-0.015311,-0.000607,-0.004504,-0.053125,0.031848,1.040362,39523.659614
-0.009985,0.001524,-0.003439,-0.067041,-0.016217,1.046130,39523.664638
-0.007854,0.003654,-0.011961,-0.085077,-0.071698,1.032580,39523.669617
-0.012115,-0.000607,-0.010896,-0.096063,-0.077283,1.030566,39523.674641
-0.013180,0.001524,-0.011961,-0.090570,-0.028760,1.019580,39523.679618
-0.011050,-0.006998,-0.005569,-0.066400,0.012530,1.032947,39523.684638
-0.017441,0.000459,-0.007700,-0.065576,-0.011640,1.020770,39523.689649
-0.007854,-0.003803,-0.006634,-0.084345,-0.077192,1.019946,39523.693645
-0.007854,-0.003803,-0.006634,-0.110163,-0.086805,1.000995,39523.698615
-0.017441,0.004720,-0.014091,-0.110163,-0.086805,1.000995,39523.699660
-0.008919,0.001524,-0.014091,-0.086450,-0.038556,1.023242,39523.703645
-0.008919,0.001524,-0.014091,-0.055048,0.009967,1.037616,39523.708608
-0.015311,0.002589,-0.007700,-0.055048,0.009967,1.037616,39523.709648
-0.008919,-0.000607,-0.003439,-0.053766,0.013537,1.041278,39523.713651
-0.013180,0.000459,-0.009830,-0.095697,-0.048169,1.026629,39523.718608
-0.006789,0.000459,-0.007700,-0.102197,-0.085431,1.011615,39523.723647
-0.013180,0.003654,-0.013026,-0.082605,-0.065107,1.035693,39523.728607
-0.011050,-0.000607,-0.011961,-0.065302,0.003466,1.062793,39523.733649
-0.011050,-0.002737,-0.004504,-0.055780,0.019488,1.044299,39523.738602
-0.004658,-0.000607,-0.000243,-0.080316,-0.034620,1.016009,39523.743654
-0.013180,0.000459,-0.005569,-0.087091,-0.083692,1.008777,39523.748604
-0.018507,-0.001672,-0.009830,-0.089014,-0.087995,1.036883,39523.753640
-0.007854,-0.002737,-0.016222,-0.071985,-0.023359,1.030566,39523.758607
-0.014246,-0.003803,-0.008765,-0.055414,0.014911,1.021594,39523.763642
-0.013180,-0.005933,-0.002373,-0.056421,-0.014112,1.026813,39523.768609
-0.014246,-0.000607,-0.007700,-0.091486,-0.085889,1.035419,39523.773644
-0.011050,-0.004868,-0.013026,-0.107599,-0.079023,0.989642,39523.778612
-0.016376,-0.001672,-0.013026,-0.093134,-0.046064,1.013446,39523.783639
-0.016376,-0.004868,-0.009830,-0.053400,0.012164,1.033954,39523.788607
-0.008919,-0.002737,-0.005569,-0.057611,0.004840,1.044940,39523.793647
-0.011050,-0.006998,-0.004504,-0.090387,-0.056134,0.996325,39523.798605
-0.004658,0.000459,-0.004504,-0.099176,-0.094678,0.988727,39523.803653
-0.015311,-0.001672,-0.011961,-0.079492,-0.059705,1.006213,39523.808608
-0.012115,-0.000607,-0.015157,-0.067316,-0.000745,1.028461,39523.813621
-0.014246,-0.005933,-0.010896,-0.060724,0.011248,1.004565,39523.818632
-0.014246,-0.004868,-0.005569,-0.084986,-0.056043,0.990924,39523.823610
-0.009985,-0.003803,-0.005569,-0.096796,-0.100995,1.015277,39523.828633
-0.018507,-0.000607,-0.013026,-0.088373,-0.076642,1.026446,39523.833621
-0.015311,-0.000607,-0.014091,-0.082788,-0.017041,1.012256,39523.838643
-0.019572,-0.002737,-0.007700,-0.064661,0.024524,1.013629,39523.843618
-0.005724,-0.005933,-0.002373,-0.063379,-0.015119,1.000537,39523.848638
-0.007854,-0.006998,-0.006634,-0.083978,-0.085889,1.000812,39523.853619
-0.009985,-0.005933,-0.009830,-0.100092,-0.087995,0.999804,39523.858645
-0.006789,-0.004868,-0.008765,-0.095423,-0.031873,0.983600,39523.863620
-0.011050,-0.004868,-0.014091,-0.059534,0.013263,0.992022,39523.868635
-0.014246,-0.001672,-0.010896,-0.059076,-0.007062,1.001361,39523.873622
-0.013180,-0.005933,-0.011961,-0.086817,-0.068128,0.988360,39523.878631
-0.009985,-0.001672,-0.005569,-0.105768,-0.101545,0.979114,39523.883618
-0.008919,-0.002737,-0.009830,-0.092218,-0.060437,0.977191,39523.888641
-0.009985,-0.000607,-0.016222,-0.053400,0.003192,1.021502,39523.893631
-0.009985,-0.004868,-0.010896,-0.061731,0.005481,1.012530,39523.898633
-0.014246,-0.006998,-0.006634,-0.089380,-0.051374,0.987170,39523.903620
-0.014246,-0.002737,-0.002373,-0.091120,-0.098066,0.985339,39523.908635
-0.015311,-0.003803,-0.011961,-0.084345,-0.071057,1.008685,39523.913626
-0.013180,-0.001672,-0.015157,-0.076837,-0.016217,1.012530,39523.918638
-0.014246,-0.002737,-0.011961,-0.055048,0.007129,0.990191,39523.923620
-0.016376,-0.011259,-0.006634,-0.076654,-0.031598,0.985339,39523.928634
-0.007854,-0.006998,-0.006634,-0.090662,-0.087629,0.984149,39523.933629
-0.011050,-0.003803,-0.007700,-0.091303,-0.082135,0.974719,39523.938610
-0.015311,-0.006998,-0.007700,-0.082056,-0.022535,0.960345,39523.943642
-0.013180,-0.004868,-0.013026,-0.056146,0.014727,0.971515,39523.948608
-0.009985,-0.001672,-0.014091,-0.056146,-0.006787,0.967486,39523.953646
-0.015311,-0.005933,-0.008765,-0.092767,-0.073438,0.964099,39523.958609
-0.011050,-0.005933,-0.004504,-0.100641,-0.096601,0.947436,39523.963646
-0.009985,-0.001672,-0.010896,-0.090662,-0.053662,0.969409,39523.968616
-0.009985,-0.000607,-0.013026,-0.053491,0.011523,0.984332,39523.973653
-0.009985,0.000459,-0.008765,-0.046900,0.002093,0.997516,39523.978611
-0.007854,0.001524,-0.007700,-0.096979,-0.049726,0.985888,39523.983640
-0.011050,-0.005933,-0.008765,-0.103571,-0.103284,0.958514,39523.988607
-0.011050,-0.000607,-0.007700,-0.061731,-0.074445,0.990832,39523.993654
-0.012115,0.000459,-0.009830,-0.054224,-0.017408,1.019488,39523.998614
-0.012115,-0.002737,-0.015157,-0.083795,-0.053388,0.952197,39524.003642
-0.011050,-0.004868,-0.009830,-0.084802,-0.099622,0.952655,39524.008609
-0.020637,-0.006998,-0.004504,-0.079126,-0.095502,0.984332,39524.013654
-0.014246,-0.002737,-0.005569,-0.070154,-0.018323,0.977374,39524.018599
-0.013180,-0.008064,-0.008765,-0.063837,0.009417,0.958239,39524.023644
-0.020637,-0.001672,-0.015157,-0.061640,-0.014844,0.944964,39524.028609
-0.016376,-0.003803,-0.006634,-0.096796,-0.074079,0.974444,39524.033650
-0.018507,-0.004868,-0.007700,-0.105768,-0.083600,0.962542,39524.038608
-0.013180,-0.004868,-0.005569,-0.077753,-0.026746,0.960711,39524.043646
-0.014246,-0.004868,-0.008765,-0.055780,0.015094,0.979388,39524.048611
-0.012115,0.000459,-0.008765,-0.051660,-0.000562,0.992480,39524.053652
-0.012115,0.002589,-0.018352,-0.094324,-0.069959,0.955035,39524.058610
-0.008919,-0.000607,-0.005569,-0.102106,-0.100171,0.931506,39524.063618
-0.012115,-0.003803,-0.009830,-0.077844,-0.078290,0.959247,39524.068632
-0.014246,-0.008064,-0.001308,-0.039209,-0.011731,1.003375,39524.073619
-0.013180,-0.004868,-0.008765,-0.039118,0.003558,0.975451,39524.078636
-0.016376,-0.002737,-0.018352,-0.089838,-0.055768,0.929492,39524.083619
-0.016376,-0.001672,-0.013026,-0.110529,-0.096692,0.929767,39524.088646
-0.014246,-0.005933,-0.011961,-0.087549,-0.084333,0.947894,39524.093628
-0.016376,-0.004868,-0.004504,-0.054773,-0.017865,0.968493,39524.098637
-0.016376,-0.001672,-0.009830,-0.062189,0.010424,0.962817,39524.103623
-0.017441,0.001524,-0.008765,-0.084070,-0.021344,0.933337,39524.108638
-0.016376,0.004720,-0.015157,-0.098627,-0.075086,0.951007,39524.113625
-0.008919,0.004720,-0.010896,-0.090936,-0.073346,0.958331,39524.118634
-0.007854,0.002589,-0.008765,-0.070154,-0.020246,0.994403,39524.123619
-0.009985,0.002589,-0.005569,-0.048273,0.015918,0.966662,39524.128635
-0.011050,0.004720,-0.008765,-0.057886,-0.008710,0.964923,39524.133625
-0.008919,0.005785,-0.013026,-0.081873,-0.075452,0.965655,39524.138638
-0.015311,0.003654,-0.017287,-0.091120,-0.106855,0.980212,39524.143618
-0.015311,0.000459,-0.006634,-0.062738,-0.071881,0.981402,39524.148637
-0.016376,-0.004868,-0.006634,-0.032526,-0.017133,0.992389,39524.153621
-0.013180,-0.003803,-0.004504,-0.053217,-0.008802,0.972156,39524.158638
-0.016376,-0.002737,-0.011961,-0.093591,-0.055402,0.945788,39524.163620
-0.019572,-0.001672,-0.018352,-0.095606,-0.108228,0.918597,39524.168638
-0.020637,-0.002737,-0.014091,-0.076929,-0.074720,0.946246,39524.173622
-0.024898,-0.006998,-0.005569,-0.059900,-0.010724,0.981677,39524.178635
-0.024898,-0.002737,-0.004504,-0.047449,0.018481,0.955676,39524.183638
-0.016376,-0.005933,-0.010896,-0.084070,-0.019880,0.922625,39524.188608
-0.017441,0.003654,-0.017287,-0.103205,-0.078656,0.922534,39524.193650
-0.014246,0.003654,-0.017287,-0.089472,-0.076184,0.952655,39524.198609
-0.012115,0.001524,-0.007700,-0.075739,-0.020154,0.956775,39524.203647
-0.015311,-0.004868,-0.003439,-0.063013,0.023425,0.954028,39524.208610
-0.013180,0.005785,-0.006634,-0.073816,-0.019513,0.946063,39524.213646
-0.011050,0.003654,-0.011961,-0.082880,-0.076459,0.957232,39524.218609
-0.008919,0.006850,-0.010896,-0.090753,-0.099713,0.967029,39524.223650
-0.012115,0.004720,-0.015157,-0.084070,-0.055585,0.957873,39524.228612
-0.011050,-0.000607,-0.005569,-0.059992,-0.001844,0.968493,39524.233646
-0.021703,-0.001672,-0.006634,-0.053949,-0.006696,0.975177,39524.238608
-0.016376,0.004720,-0.008765,-0.086084,-0.061536,0.970233,39524.243650
-0.018507,0.001524,-0.009830,-0.099268,-0.098432,0.955951,39524.248615
-0.016376,0.003654,-0.014091,-0.080957,-0.063276,0.966479,39524.253646
-0.015311,0.000459,-0.013026,-0.058618,-0.005963,0.983416,39524.258612
-0.011050,0.001524,-0.002373,-0.055963,0.013995,0.971881,39524.263648
-0.011050,0.002589,-0.010896,-0.090662,-0.040387,0.942584,39524.268611
-0.017441,0.001524,-0.011961,-0.096796,-0.089460,0.935901,39524.273649
-0.017441,0.005785,-0.014091,-0.085718,-0.083051,0.965472,39524.278611
-0.019572,0.003654,-0.019418,-0.058435,-0.029126,0.988727,39524.283656
-0.015311,0.001524,-0.006634,-0.051294,-0.000013,0.990558,39524.288612
-0.009985,-0.000607,-0.006634,-0.074915,-0.028119,0.937274,39524.293652
-0.017441,-0.000607,-0.010896,-0.087549,-0.089368,0.943316,39524.298610
-0.022768,0.004720,-0.016222,-0.078302,-0.095411,0.966754,39524.303624
-0.022768,0.000459,-0.014091,-0.079859,-0.040570,0.997973,39524.308638
-0.024898,-0.000607,-0.004504,-0.060724,0.010333,0.966113,39524.312640
-0.024898,-0.000607,-0.004504,-0.059625,-0.006147,0.979846,39524.317624
-0.020637,0.000459,-0.009830,-0.059625,-0.006147,0.979846,39524.318640
-0.016376,0.002589,-0.007700,-0.083154,-0.052289,0.981219,39524.322643
-0.014246,0.001524,-0.013026,-0.099909,-0.082959,0.961902,39524.327625
-0.013180,0.006850,-0.015157,-0.093134,-0.052198,0.951831,39524.332640
-0.011050,0.001524,-0.009830,-0.062464,-0.000104,0.963824,39524.337625
-0.014246,0.010046,-0.014091,-0.050287,0.010150,0.985248,39524.342634
-0.013180,0.002589,-0.007700,-0.086725,-0.044233,0.968768,39524.347617
-0.008919,0.004720,-0.010896,-0.102655,-0.095960,0.949267,39524.352636
-0.009985,0.007915,-0.013026,-0.083978,-0.078931,0.971332,39524.357624
-0.009985,0.010046,-0.015157,-0.060541,-0.021436,1.004565,39524.362643
-0.017441,0.013242,-0.010896,-0.052667,0.001727,1.006854,39524.367623
-0.013180,0.004720,-0.007700,-0.082514,-0.036542,0.980853,39524.372639
-0.014246,0.011111,-0.006634,-0.088465,-0.089276,0.984515,39524.377624
-0.014246,0.010046,-0.013026,-0.072901,-0.093854,1.018573,39524.382644
-0.015311,0.008981,-0.015157,-0.064752,-0.036176,1.061145,39524.387620
-0.011050,0.003654,-0.016222,-0.045801,0.009692,1.018939,39524.392642
-0.016376,-0.001672,-0.011961,-0.056787,-0.013562,0.993945,39524.397624
-0.016376,-0.002737,-0.008765,-0.083063,-0.075269,0.987262,39524.402641
-0.012115,-0.002737,-0.011961,-0.087183,-0.105390,0.994128,39524.407630
-0.014246,0.003654,-0.014091,-0.084436,-0.059522,0.977191,39524.412642
-0.021703,0.000459,-0.013026,-0.077295,-0.007428,0.984057,39524.417698
-0.017441,-0.000607,-0.009830,-0.056787,-0.006147,0.987994,39524.422635
-0.019572,0.001524,-0.005569,-0.084986,-0.050916,1.001727,39524.427656
-0.015311,-0.002737,-0.008765,-0.101007,-0.087995,0.984332,39524.432615
-0.015311,0.005785,-0.007700,-0.100092,-0.062909,0.987994,39524.437662
-0.012115,0.006850,-0.017287,-0.070337,-0.004407,1.003009,39524.442611
-0.017441,0.003654,-0.017287,-0.049005,0.015551,1.018664,39524.447647
-0.012115,-0.001672,0.001888,-0.072992,-0.028394,1.010974,39524.452615
-0.012115,0.001524,-0.007700,-0.097162,-0.085889,0.991473,39524.457652
-0.009985,0.006850,-0.009830,-0.090570,-0.091657,0.980761,39524.462623
-0.008919,0.005785,-0.013026,-0.073175,-0.040570,1.020404,39524.467650
-0.009985,0.007915,-0.016222,-0.065943,0.008410,1.012530,39524.472611
-0.012115,0.004720,-0.011961,-0.075098,-0.037824,0.987994,39524.477654
-0.014246,0.004720,-0.004504,-0.084802,-0.083875,0.967853,39524.482613
-0.016376,0.010046,-0.003439,-0.097711,-0.098157,1.007495,39524.487652
-0.013180,0.007915,-0.011961,-0.080042,-0.042676,1.017108,39524.492623
-0.007854,0.008981,-0.013026,-0.065759,0.007129,1.020862,39524.497665
-0.015311,0.006850,-0.013026,-0.059351,0.005755,1.016559,39524.502615
-0.012115,0.005785,-0.014091,-0.079035,-0.057874,1.032489,39524.507649
-0.008919,0.003654,-0.005569,-0.085993,-0.099164,1.015826,39524.512614
-0.006789,0.001524,-0.011961,-0.089105,-0.070783,1.004291,39524.517656
-0.007854,0.006850,-0.013026,-0.076013,-0.022535,1.007495,39524.522615
-0.006789,0.002589,-0.013026,-0.042139,-0.010175,1.030749,39524.527650
-0.014246,0.003654,-0.010896,-0.066492,-0.064099,1.023791,39524.532612
-0.015311,-0.004868,-0.008765,-0.091303,-0.100812,0.986255,39524.537651
-0.013180,-0.002737,-0.004504,-0.106134,-0.098157,0.994677,39524.542612
-0.017441,-0.000607,-0.009830,-0.070246,-0.037549,1.009967,39524.547650
-0.019572,0.001524,-0.016222,-0.051569,0.000720,1.032214,39524.552612
-0.015311,-0.000607,-0.011961,-0.073358,-0.019788,1.010242,39524.557628
-0.016376,-0.006998,-0.006634,-0.099634,-0.086805,0.986529,39524.562645
-0.014246,0.002589,-0.005569,-0.084986,-0.029401,1.024524,39524.567622
-0.009985,0.000459,-0.007700,-0.068689,0.006305,1.010608,39524.572646
-0.006789,0.003654,-0.017287,-0.067957,-0.003217,0.977191,39524.577627
-0.009985,0.006850,-0.016222,-0.089929,-0.064099,0.978198,39524.582639
-0.009985,0.001524,-0.006634,-0.096063,-0.099988,0.982593,39524.587626
-0.008919,0.002589,-0.011961,-0.099726,-0.066388,0.992389,39524.592643
-0.009985,0.005785,-0.004504,-0.081323,-0.013105,0.983691,39524.597626
-0.011050,0.007915,-0.010896,-0.054590,-0.006421,1.002093,39524.602644
-0.009985,0.008981,-0.015157,-0.073999,-0.050092,1.018481,39524.607630
-0.014246,0.012176,-0.011961,-0.087457,-0.090100,1.020038,39524.612643
-0.006789,0.005785,-0.007700,-0.102747,-0.076825,0.999621,39524.617622
-0.011050,0.002589,-0.007700,-0.069971,-0.026563,1.024615,39524.622645
-0.003593,0.003654,-0.009830,-0.041773,-0.001477,1.054370,39524.627621
-0.004658,0.010046,-0.017287,-0.065576,-0.038007,1.031848,39524.632651
-0.005724,0.003654,-0.011961,-0.098169,-0.098706,0.993670,39524.637629
-0.009985,0.002589,-0.010896,-0.096704,-0.107587,0.992572,39524.642639
-0.009985,-0.002737,-0.007700,-0.070429,-0.057050,1.028552,39524.647626
-0.012115,0.003654,-0.006634,-0.055872,-0.016401,1.012988,39524.652642
-0.014246,-0.002737,-0.010896,-0.069971,-0.028669,0.996325,39524.657630
-0.014246,0.003654,-0.011961,-0.082514,-0.084241,0.980121,39524.662641
-0.015311,-0.001672,-0.015157,-0.088556,-0.103467,1.008044,39524.667625
-0.016376,0.000459,-0.003439,-0.080316,-0.058149,1.017657,39524.672642
-0.006789,-0.002737,-0.001308,-0.075372,0.004290,1.024158,39524.677652
-0.009985,0.000459,-0.013026,-0.062006,0.008685,1.000720,39524.682619
-0.013180,0.003654,-0.010896,-0.070978,-0.048444,1.014819,39524.687652
-0.008919,0.002589,-0.015157,-0.092218,-0.090284,1.024341,39524.692624
-0.003593,-0.002737,-0.009830,-0.105676,-0.074353,1.004291,39524.697659
-0.008919,-0.002737,-0.006634,-0.085535,-0.019696,0.992480,39524.702621
-0.002528,0.000459,-0.007700,-0.054865,-0.014020,1.006579,39524.707651
-0.005724,0.006850,-0.010896,-0.055780,-0.048993,1.004291,39524.712621
-0.007854,0.001524,-0.010896,-0.096979,-0.112256,0.991290,39524.717651
-0.011050,0.002589,-0.014091,-0.106592,-0.095868,0.973254,39524.722615
-0.008919,0.001524,-0.007700,-0.083154,-0.043866,1.000903,39524.727650
-0.011050,0.002589,-0.005569,-0.043787,-0.004590,1.024981,39524.732614
-0.012115,0.004720,-0.010896,-0.064661,-0.034620,1.023059,39524.737652
-0.011050,0.005785,-0.010896,-0.096887,-0.079663,0.974994,39524.742617
-0.013180,0.006850,-0.017287,-0.108972,-0.091657,0.982318,39524.747657
-0.012115,0.006850,-0.011961,-0.080042,-0.044507,1.022143,39524.752618
-0.003593,0.005785,-0.007700,-0.056513,0.000720,1.062243,39524.757655
-0.004658,0.001524,-0.005569,-0.056421,-0.007611,1.013446,39524.762613
-0.003593,0.002589,-0.010896,-0.083246,-0.064374,0.993945,39524.767662
-0.007854,0.005785,-0.009830,-0.095697,-0.103376,0.993396,39524.772621
-0.005724,0.004720,-0.014091,-0.092951,-0.074994,1.019397,39524.777653
-0.006789,-0.001672,-0.010896,-0.072717,-0.024182,1.013263,39524.782619
-0.012115,-0.004868,-0.004504,-0.051111,-0.015668,1.020862,39524.787651
-0.009985,-0.000607,-0.009830,-0.067865,-0.063276,1.013629,39524.792641
-0.007854,0.007915,-0.013026,-0.088098,-0.101911,1.001544,39524.797629
-0.013180,-0.000607,-0.017287,-0.103754,-0.090100,0.995410,39524.802644
-0.008919,0.002589,-0.009830,-0.082239,-0.034986,1.005847,39524.807628
-0.009985,-0.005933,-0.007700,-0.045526,-0.003583,1.033771,39524.812641
-0.006789,0.000459,-0.009830,-0.060175,-0.028028,1.028552,39524.817627
-0.008919,-0.003803,-0.014091,-0.096155,-0.078839,0.985705,39524.822641
-0.006789,0.002589,-0.014091,-0.109064,-0.091474,0.972613,39524.827628
-0.005724,0.001524,-0.017287,-0.086450,-0.042585,1.000262,39524.832641
-0.008919,0.000459,-0.006634,-0.057062,-0.003492,1.013446,39524.837629
-0.004658,-0.003803,-0.008765,-0.066858,-0.014753,0.999438,39524.842644
-0.009985,0.002589,-0.007700,-0.101923,-0.078565,0.976184,39524.847624
-0.004658,0.001524,-0.011961,-0.094049,-0.101545,0.970233,39524.852648
-0.006789,0.006850,-0.011961,-0.087915,-0.060346,1.017016,39524.857631
-0.005724,0.001524,-0.016222,-0.073175,-0.005231,1.020038,39524.862643
-0.004658,-0.000607,-0.010896,-0.056330,-0.006330,1.010425,39524.867626
-0.002528,-0.001672,-0.006634,-0.073541,-0.053388,1.005023,39524.872648
-0.005724,0.004720,-0.011961,-0.085901,-0.098798,1.017291,39524.877627
-0.007854,0.002589,-0.014091,-0.089563,-0.082410,1.022784,39524.882645
-0.004658,0.001524,-0.015157,-0.075556,-0.031049,1.011340,39524.887625
-0.001462,-0.002737,-0.007700,-0.050287,-0.013471,1.004474,39524.892645
-0.001462,-0.001672,-0.009830,-0.064569,-0.055219,1.001910,39524.897626
-0.007854,-0.000607,-0.008765,-0.097986,-0.100629,0.980395,39524.902641
-0.008919,-0.001672,-0.018352,-0.103113,-0.095319,0.956683,39524.907628
-0.009985,0.003654,-0.014091,-0.081873,-0.049726,0.987903,39524.912642
-0.011050,-0.002737,-0.011961,-0.051203,-0.002210,1.018939,39524.917652
-0.011050,0.000459,-0.006634,-0.061548,-0.017316,1.024615,39524.921644
-0.011050,0.000459,-0.006634,-0.098627,-0.073713,0.970691,39524.926616
-0.006789,-0.003803,-0.003439,-0.098627,-0.073713,0.970691,39524.927657
-0.016376,0.003654,-0.011961,-0.105127,-0.089551,0.979388,39524.931652
-0.016376,0.003654,-0.011961,-0.082788,-0.045148,1.005115,39524.936615
-0.003593,0.004720,-0.014091,-0.082788,-0.045148,1.005115,39524.937658
-0.007854,0.001524,-0.010896,-0.064569,0.005847,1.038806,39524.941646
-0.006789,-0.005933,-0.011961,-0.059168,0.000445,1.009234,39524.946615
-0.001462,-0.001672,-0.007700,-0.082514,-0.066388,0.996875,39524.951642
-0.001462,-0.000607,-0.010896,-0.096704,-0.102369,0.989734,39524.956621
0.001733,0.001524,-0.010896,-0.100275,-0.080762,0.990191,39524.961647
-0.001462,0.001524,-0.015157,-0.071619,-0.023633,0.984881,39524.966618
-0.008919,-0.000607,-0.016222,-0.056604,-0.016309,0.989459,39524.971646
-0.012115,0.001524,-0.006634,-0.065759,-0.054395,0.984424,39524.976618
-0.011050,0.000459,-0.004504,-0.094599,-0.101361,0.990008,39524.981652
-0.003593,0.000459,-0.009830,-0.104852,-0.079572,0.984057,39524.986617
-0.004658,0.001524,-0.017287,-0.072168,-0.033155,1.003284,39524.991648
-0.005724,-0.001672,-0.011961,-0.042780,0.006488,1.010516,39524.996614
-0.007854,0.005785,-0.014091,-0.056604,-0.018689,1.023425,39525.001650
-0.002528,-0.002737,-0.007700,-0.102106,-0.077375,0.981219,39525.006611
-0.003593,-0.001672,-0.008765,-0.112634,-0.095594,0.960528,39525.011646
-0.001462,0.000459,-0.016222,-0.069971,-0.053388,0.988543,39525.016618
-0.004658,0.003654,-0.013026,-0.039209,-0.020246,1.029193,39525.021650
-0.004658,-0.003803,-0.011961,-0.063104,-0.017408,1.006854,39525.026611
-0.000397,-0.003803,-0.005569,-0.104395,-0.079755,0.957141,39525.031626
-0.008919,-0.001672,-0.008765,-0.096155,-0.105848,0.952380,39525.036616
-0.002528,0.004720,-0.010896,-0.083978,-0.067487,1.016192,39525.041625
-0.008919,0.001524,-0.015157,-0.055963,-0.003766,1.026172,39525.046637
-0.007854,0.001524,-0.013026,-0.065576,0.004840,0.987262,39525.051618
-0.006789,-0.002737,-0.009830,-0.076196,-0.043134,0.973987,39525.056638
-0.002528,0.000459,-0.006634,-0.087732,-0.097425,1.008777,39525.061619
-0.004658,-0.004868,-0.011961,-0.091303,-0.078748,1.010608,39525.066648
-0.001462,0.003654,-0.011961,-0.072992,-0.028577,0.992206,39525.071618
-0.004658,-0.000607,-0.016222,-0.053949,-0.003583,0.976642,39525.076640
-0.001462,0.002589,-0.017287,-0.069513,-0.041761,0.997149,39525.081619
-0.006789,-0.001672,-0.005569,-0.088922,-0.100995,0.977740,39525.086646
-0.004658,-0.002737,-0.009830,-0.100275,-0.102094,0.974078,39525.091627
-0.005724,0.001524,-0.011961,-0.082239,-0.053388,0.984424,39525.096644
-0.004658,0.002589,-0.015157,-0.052667,-0.012006,1.008319,39525.101623
-0.005724,0.003654,-0.017287,-0.066217,-0.026105,1.013263,39525.106643
-0.006789,-0.001672,-0.010896,-0.092035,-0.078199,0.986255,39525.111622
-0.009985,-0.001672,-0.005569,-0.101923,-0.098432,0.986346,39525.116644
-0.003593,0.000459,-0.010896,-0.075647,-0.055402,1.004657,39525.121626
-0.000397,0.001524,-0.013026,-0.055780,-0.004224,1.031756,39525.126642
-0.004658,-0.001672,-0.019418,-0.063104,-0.004865,1.018573,39525.131619
0.003864,-0.003803,-0.011961,-0.088465,-0.108411,0.969500,39525.136644
-0.004658,-0.001672,-0.009830,-0.087274,-0.092664,1.003558,39525.141622
-0.003593,-0.000607,-0.007700,-0.075281,-0.031690,1.002643,39525.146637
-0.003593,-0.004868,-0.008765,-0.058801,-0.011548,0.971972,39525.151619
-0.004658,-0.000607,-0.014091,-0.071070,-0.061536,0.958056,39525.156619
-0.004658,-0.001672,-0.016222,-0.094415,-0.105756,0.981219,39525.161650
-0.006789,0.004720,-0.013026,-0.116388,-0.093763,0.979114,39525.166618
-0.004658,-0.002737,-0.009830,-0.091303,-0.030957,0.969867,39525.171644
-0.007854,-0.000607,-0.006634,-0.045252,-0.003583,0.996509,39525.176622
-0.007854,0.005785,-0.013026,-0.054590,-0.016767,1.033404,39525.181651
-0.005724,0.003654,-0.015157,-0.090296,-0.073987,1.004199,39525.186613
0.000668,-0.001672,-0.013026,-0.106500,-0.096143,0.966571,39525.191648
0.003864,0.000459,-0.010896,-0.091303,-0.052747,0.981128,39525.196615
-0.000397,0.000459,-0.011961,-0.050836,-0.011823,1.019122,39525.201645
-0.001462,0.001524,-0.006634,-0.053034,-0.025098,1.006488,39525.206614
-0.000397,0.000459,-0.019418,-0.088831,-0.079389,0.965838,39525.211649
-0.006789,-0.000607,-0.018352,-0.102197,-0.113172,0.957965,39525.216620
-0.005724,0.000459,-0.014091,-0.078943,-0.081220,1.000262,39525.221648
-0.000397,-0.000607,-0.003439,-0.051752,-0.021344,1.010974,39525.226614
-0.003593,0.000459,-0.013026,-0.054865,-0.002484,0.991015,39525.231644
-0.007854,0.003654,-0.010896,-0.089655,-0.049085,0.955768,39525.236618
-0.003593,-0.001672,-0.014091,-0.096521,-0.098798,0.969592,39525.241649
-0.006789,0.002589,-0.013026,-0.081323,-0.074811,0.997699,39525.246615
-0.000397,-0.002737,-0.004504,-0.079035,-0.029950,1.032580,39525.251649
-0.002528,0.002589,-0.011961,-0.053491,0.000537,1.001452,39525.256620
0.000668,-0.001672,-0.014091,-0.056970,-0.040296,0.990191,39525.261655
0.001733,0.008981,-0.015157,-0.086908,-0.096143,0.967303,39525.266614
0.002799,-0.001672,-0.017287,-0.113550,-0.107495,0.981494,39525.271647
-0.001462,0.000459,-0.010896,-0.082880,-0.050733,0.954944,39525.276618
-0.008919,-0.003803,-0.008765,-0.049921,-0.015393,0.997607,39525.281623
-0.007854,0.003654,-0.006634,-0.053491,-0.011914,1.013629,39525.286643
-0.012115,0.000459,-0.016222,-0.080683,-0.076093,0.997882,39525.291621
-0.006789,-0.002737,-0.009830,-0.084436,-0.098798,0.961535,39525.296649
-0.005724,0.000459,-0.015157,-0.105676,-0.057416,0.977923,39525.301621
-0.003593,0.000459,-0.011961,-0.081873,0.008227,0.964740,39525.306645
-0.001462,-0.001672,-0.008765,-0.046900,0.001452,0.998431,39525.311620
-0.002528,-0.001672,-0.011961,-0.076105,-0.045331,0.985431,39525.316647
-0.002528,0.003654,-0.017287,-0.090936,-0.090375,0.965381,39525.321619
0.008125,0.000459,-0.017287,-0.092676,-0.072889,0.973803,39525.326640
0.004929,0.002589,-0.014091,-0.070246,-0.023267,0.983966,39525.331624
0.000668,-0.001672,-0.010896,-0.057337,0.004107,0.980212,39525.336645
-0.000397,-0.002737,-0.008765,-0.085809,-0.045606,0.960345,39525.341622
-0.003593,0.006850,-0.014091,-0.080133,-0.104016,0.952929,39525.346641
-0.009985,0.007915,-0.014091,-0.087915,-0.095319,0.990558,39525.351625
-0.001462,0.001524,-0.015157,-0.083063,-0.034894,1.025348,39525.356647
0.002799,-0.001672,-0.004504,-0.045892,-0.009168,0.997882,39525.361622
0.001733,-0.000607,-0.013026,-0.045435,-0.010175,1.012530,39525.366646
-0.002528,0.002589,-0.008765,-0.101648,-0.060804,1.005115,39525.371626
0.005994,-0.000607,-0.020483,-0.115473,-0.096692,0.965014,39525.376650
-0.002528,-0.000607,-0.016222,-0.062189,-0.055494,0.974627,39525.381621
-0.006789,-0.002737,-0.010896,-0.038294,-0.006513,1.011065,39525.386643
-0.007854,-0.002737,-0.007700,-0.045892,-0.012738,1.016833,39525.391645
0.001733,-0.005933,-0.009830,-0.094782,-0.068402,0.950000,39525.396620
-0.005724,0.001524,-0.008765,-0.106317,-0.090009,0.913562,39525.401649
-0.004658,0.000459,-0.021548,-0.084070,-0.079572,0.961169,39525.406614
-0.013180,0.001524,-0.013026,-0.060449,-0.012464,1.012439,39525.411653
-0.005724,-0.002737,-0.008765,-0.048731,0.009326,0.984973,39525.416619
-0.003593,0.001524,-0.005569,-0.061914,-0.025922,0.944964,39525.421650
-0.001462,0.006850,-0.009830,-0.102014,-0.082502,0.985156,39525.426597
0.002799,0.005785,-0.020483,-0.087915,-0.068128,0.986529,39525.431655
-0.001462,0.001524,-0.018352,-0.054315,-0.019239,0.987262,39525.436618
-0.005724,-0.003803,-0.010896,-0.063379,0.004474,0.989001,39525.441650
0.000668,-0.001672,-0.007700,-0.059717,-0.022718,0.987079,39525.446617
0.004929,0.003654,-0.010896,-0.080774,-0.083509,0.956317,39525.451653
-0.003593,0.004720,-0.017287,-0.108698,-0.100446,0.958423,39525.456618
-0.004658,0.003654,-0.016222,-0.098078,-0.052930,0.972888,39525.461648
-0.000397,0.003654,-0.019418,-0.053949,-0.003034,0.991656,39525.466618
-0.004658,0.002589,-0.007700,-0.040491,-0.002668,0.993945,39525.471648
-0.004658,0.001524,-0.007700,-0.077570,-0.066022,0.987994,39525.476618
-0.000397,0.000459,-0.015157,-0.118585,-0.081952,0.973346,39525.481652
-0.003593,0.003654,-0.014091,-0.093683,-0.057416,0.973803,39525.486621
-0.000397,0.008981,-0.015157,-0.042047,-0.007520,1.004016,39525.491647
0.000668,0.001524,-0.013026,-0.054865,0.012164,1.043933,39525.496614
0.001733,-0.004868,-0.014091,-0.072077,-0.044141,0.976275,39525.501649
0.004929,0.000459,-0.010896,-0.089655,-0.098890,0.930224,39525.506617
-0.004658,0.000459,-0.014091,-0.098535,-0.076001,0.950915,39525.511629
-0.000397,0.001524,-0.017287,-0.080408,-0.031781,1.012988,39525.516616
-0.005724,-0.002737,-0.021548,-0.051203,-0.005506,0.974170,39525.520664
-0.005724,-0.002737,-0.021548,-0.073084,-0.027112,0.964557,39525.525641
-0.005724,0.002589,-0.008765,-0.073084,-0.027112,0.964557,39525.526651
-0.003593,-0.001672,-0.008765,-0.093500,-0.085614,0.976458,39525.530677
-0.003593,-0.001672,-0.008765,-0.102472,-0.090558,1.004107,39525.535632
0.000668,0.000459,-0.013026,-0.102472,-0.090558,1.004107,39525.536653
-0.004658,0.003654,-0.016222,-0.083978,-0.020154,0.984057,39525.540668
-0.005724,0.002589,-0.015157,-0.050195,0.005938,0.996509,39525.545630
-0.002528,0.000459,-0.011961,-0.061640,-0.006055,1.005115,39525.550666
0.002799,0.001524,-0.009830,-0.088098,-0.064099,0.990649,39525.555635
0.000668,0.001524,-0.006634,-0.105127,-0.084241,0.954303,39525.560668
0.000668,0.000459,-0.016222,-0.093317,-0.049176,0.980578,39525.565638
-0.003593,0.003654,-0.016222,-0.039392,-0.000287,1.002185,39525.570673
-0.001462,0.010046,-0.014091,-0.059717,-0.003308,1.007586,39525.575633
-0.004658,-0.001672,-0.014091,-0.101373,-0.048261,0.947986,39525.580675
0.004929,0.005785,-0.007700,-0.110071,-0.103559,0.958880,39525.585633
-0.003593,0.007915,-0.010896,-0.081964,-0.068402,0.982959,39525.590679
-0.004658,0.011111,-0.016222,-0.065851,-0.016675,1.029925,39525.595638
-0.004658,0.006850,-0.018352,-0.054498,0.011706,1.016467,39525.600677
-0.002528,0.004720,-0.013026,-0.081598,-0.036176,0.990283,39525.605633
-0.002528,-0.000607,-0.010896,-0.096979,-0.082776,0.972247,39525.610673
-0.004658,0.007915,-0.008765,-0.083338,-0.088453,1.013354,39525.615634
-0.001462,0.003654,-0.013026,-0.070520,-0.035260,1.024798,39525.620673
-0.005724,0.001524,-0.017287,-0.057153,0.001178,1.019488,39525.625665
-0.008919,0.002589,-0.014091,-0.069788,-0.026746,0.983600,39525.630646
-0.006789,-0.002737,-0.008765,-0.086359,-0.087537,0.982043,39525.635663
-0.011050,-0.001672,-0.007700,-0.100000,-0.096784,1.009967,39525.640647
-0.007854,-0.003803,-0.014091,-0.090021,-0.039197,0.990649,39525.645668
-0.006789,0.003654,-0.015157,-0.059900,-0.002576,0.998523,39525.650642
-0.008919,0.003654,-0.015157,-0.043146,-0.005963,1.006030,39525.655664
-0.003593,0.003654,-0.009830,-0.091577,-0.056134,1.004291,39525.660647
-0.009985,-0.002737,-0.010896,-0.116480,-0.090924,0.966021,39525.665658
-0.004658,0.001524,-0.006634,-0.101282,-0.062818,0.971148,39525.670645
-0.008919,0.005785,-0.018352,-0.059442,-0.007337,1.010058,39525.675660
-0.008919,0.008981,-0.017287,-0.048731,0.010699,1.042743,39525.680644
-0.001462,-0.002737,-0.014091,-0.086084,-0.045514,0.992938,39525.685659
-0.008919,0.000459,-0.011961,-0.099176,-0.086072,0.965655,39525.690650
-0.001462,0.000459,-0.009830,-0.075098,-0.030774,1.029651,39525.695665
-0.005724,0.004720,-0.017287,-0.048914,-0.004682,1.016284,39525.700652
-0.011050,0.002589,-0.013026,-0.070612,-0.045697,0.989184,39525.705661
-0.004658,0.005785,-0.013026,-0.090753,-0.088361,0.979663,39525.710646
-0.006789,0.000459,-0.014091,-0.102838,-0.096967,0.994037,39525.715661
-0.004658,0.001524,-0.004504,-0.085169,-0.042859,0.999713,39525.720654
-0.007854,-0.003803,-0.008765,-0.069238,-0.002759,1.011615,39525.725671
-0.008919,0.005785,-0.007700,-0.059534,-0.013288,1.000537,39525.730648
-0.013180,0.005785,-0.018352,-0.080774,-0.071515,1.020221,39525.735661
-0.008919,0.007915,-0.016222,-0.099634,-0.080487,1.008594,39525.740645
-0.007854,-0.001672,-0.010896,-0.102289,-0.054853,1.018756,39525.745659
-0.003593,0.000459,-0.009830,-0.063196,-0.009534,1.010974,39525.750668
-0.004658,0.003654,-0.009830,-0.038477,-0.004956,1.042926,39525.755637
-0.007854,0.002589,-0.014091,-0.067590,-0.054578,1.030658,39525.760681
-0.004658,0.003654,-0.017287,-0.112268,-0.108411,0.984973,39525.765635
-0.007854,-0.001672,-0.014091,-0.092767,-0.082044,0.977557,39525.770672
-0.012115,-0.001672,-0.010896,-0.056787,-0.038739,1.026172,39525.775636
-0.011050,0.002589,-0.007700,-0.050195,-0.005231,1.038806,39525.780675
-0.008919,-0.001672,-0.016222,-0.077112,-0.044141,1.003467,39525.785644
-0.009985,-0.002737,-0.019418,-0.097345,-0.092847,0.955310,39525.790674
-0.016376,0.000459,-0.009830,-0.095789,-0.095411,0.987628,39525.795640
-0.013180,-0.001672,-0.007700,-0.075372,-0.039472,1.027545,39525.800677
-0.005724,-0.001672,-0.008765,-0.060449,-0.003949,1.022510,39525.805631
-0.011050,-0.003803,-0.013026,-0.062830,-0.019788,0.990191,39525.810671
-0.007854,0.005785,-0.013026,-0.090296,-0.083234,0.983508,39525.815638
-0.009985,-0.001672,-0.019418,-0.105310,-0.096234,0.988452,39525.820684
-0.008919,0.000459,-0.007700,-0.096247,-0.061811,1.003284,39525.825641
-0.004658,-0.000607,-0.007700,-0.059625,-0.010907,1.005389,39525.830671
-0.007854,0.001524,-0.014091,-0.053858,-0.016126,1.019305,39525.835634
-0.008919,0.006850,-0.017287,-0.077570,-0.067487,1.010699,39525.840686
-0.005724,0.007915,-0.009830,-0.103296,-0.096784,0.995868,39525.845632
-0.009985,-0.000607,-0.021548,-0.105402,-0.075910,0.998614,39525.850673
-0.008919,-0.003803,-0.009830,-0.058985,-0.027387,1.022784,39525.855638
-0.005724,-0.000607,-0.013026,-0.037561,-0.009534,1.049518,39525.860673
-0.005724,0.003654,-0.014091,-0.072077,-0.053022,1.019305,39525.865637
-0.004658,-0.003803,-0.014091,-0.114649,-0.106397,0.971881,39525.870669
-0.008919,-0.001672,-0.013026,-0.099176,-0.094312,0.971789,39525.875636
-0.007854,0.001524,-0.013026,-0.064661,-0.051374,1.019122,39525.880677
-0.004658,-0.004868,-0.008765,-0.058435,-0.010816,1.032855,39525.885664
-0.008919,-0.004868,-0.011961,-0.078577,-0.036817,0.983325,39525.890647
-0.008919,0.000459,-0.016222,-0.093317,-0.096784,0.963458,39525.895671
-0.009985,0.003654,-0.016222,-0.097070,-0.108594,0.986072,39525.900650
-0.012115,0.001524,-0.018352,-0.084253,-0.051465,1.023242,39525.905661
-0.005724,-0.004868,-0.007700,-0.062555,-0.014569,1.015185,39525.910645
-0.012115,-0.000607,-0.009830,-0.052851,-0.022809,0.990924,39525.915664
-0.008919,-0.002737,-0.016222,-0.081140,-0.075727,1.003741,39525.920647
-0.007854,0.003654,-0.014091,-0.098261,-0.103193,1.005298,39525.925668
-0.005724,-0.003803,-0.018352,-0.101007,-0.070417,0.990375,39525.930645
-0.011050,-0.002737,-0.011961,-0.068872,-0.025098,0.991565,39525.935665
-0.006789,-0.000607,-0.008765,-0.051111,-0.018781,1.017108,39525.940646
-0.007854,-0.001672,-0.010896,-0.082971,-0.068311,1.003009,39525.945664
-0.007854,0.000459,-0.014091,-0.110163,-0.107129,0.952746,39525.950650
-0.007854,0.002589,-0.018352,-0.108057,-0.094953,0.961993,39525.955673
-0.009985,-0.001672,-0.014091,-0.057886,-0.041761,1.015185,39525.960653
-0.006789,0.004720,-0.010896,-0.044885,-0.011090,1.028644,39525.965665
-0.000397,-0.000607,-0.010896,-0.084619,-0.046796,0.993854,39525.970645
-0.000397,0.002589,-0.015157,-0.107416,-0.103101,0.948718,39525.975662
-0.006789,0.004720,-0.018352,-0.092676,-0.110059,0.991748,39525.980652
-0.015311,0.005785,-0.015157,-0.058435,-0.053388,1.025256,39525.985662
-0.004658,0.001524,-0.011961,-0.052027,-0.014386,1.036975,39525.990648
-0.007854,-0.000607,-0.007700,-0.063654,-0.026746,0.993945,39525.995665
-0.000397,-0.001672,-0.015157,-0.090021,-0.092755,0.980945,39526.000664
-0.003593,0.003654,-0.018352,-0.091028,-0.109327,0.996966,39526.005661
-0.004658,0.003654,-0.016222,-0.084528,-0.073713,1.015552,39526.010665
-0.007854,-0.005933,-0.017287,-0.057245,-0.023359,0.992022,39526.015644
-0.007854,-0.000607,-0.013026,-0.060175,-0.023816,0.998340,39526.020678
-0.003593,-0.000607,-0.006634,-0.074823,-0.074903,0.980487,39526.025642
-0.006789,0.001524,-0.011961,-0.102472,-0.113538,0.992755,39526.030673
-0.008919,-0.002737,-0.020483,-0.105127,-0.085889,0.971881,39526.035640
-0.013180,-0.001672,-0.015157,-0.070612,-0.031781,0.988269,39526.040678
-0.007854,0.002589,-0.010896,-0.041040,-0.010175,1.009967,39526.045634
-0.003593,0.002589,-0.015157,-0.071619,-0.050641,1.011615,39526.050676
-0.003593,-0.000607,-0.010896,-0.113642,-0.102002,0.960528,39526.055637
-0.001462,0.001524,-0.015157,-0.103205,-0.098981,0.960803,39526.060681
-0.005724,0.005785,-0.020483,-0.053491,-0.046521,1.008136,39526.065637
-0.011050,0.000459,-0.011961,-0.041132,-0.013196,1.040637,39526.070674
-0.003593,-0.001672,-0.011961,-0.078485,-0.035260,0.989367,39526.075636
-0.007854,-0.004868,-0.010896,-0.104578,-0.100171,0.946338,39526.080679
-0.005724,0.005785,-0.011961,-0.092859,-0.109784,0.971698,39526.085638
-0.003593,0.006850,-0.016222,-0.083704,-0.065747,1.024249,39526.090684
-0.011050,0.001524,-0.019418,-0.056055,-0.011731,1.008227,39526.095633
-0.006789,0.003654,-0.011961,-0.060999,-0.027112,0.986163,39526.100677
-0.006789,0.002589,-0.008765,-0.079492,-0.066571,0.984607,39526.105637
-0.004658,0.004720,-0.011961,-0.093134,-0.100995,1.002917,39526.110674
-0.000397,0.001524,-0.016222,-0.080957,-0.071424,1.005115,39526.115634
-0.003593,0.005785,-0.018352,-0.057153,-0.027753,1.004199,39526.120654
-0.002528,0.000459,-0.018352,-0.043329,-0.010541,1.013629,39526.125667
0.001733,0.003654,-0.016222,-0.073358,-0.072705,1.011615,39526.130652
-0.001462,-0.003803,-0.016222,-0.095056,-0.117017,0.975177,39526.135660
-0.003593,0.001524,-0.011961,-0.094049,-0.106122,0.979846,39526.139662
-0.003593,0.001524,-0.011961,-0.070429,-0.054761,1.002917,39526.144631
-0.007854,0.002589,-0.018352,-0.070429,-0.054761,1.002917,39526.145668
-0.011050,0.004720,-0.016222,-0.032709,-0.022626,1.020038,39526.149657
-0.011050,0.004720,-0.016222,-0.056696,-0.044324,1.018481,39526.154629
-0.008919,0.000459,-0.016222,-0.056696,-0.044324,1.018481,39526.155676
-0.011050,-0.005933,-0.009830,-0.101648,-0.096784,0.978381,39526.159659
-0.007854,0.001524,-0.011961,-0.095789,-0.106031,0.976367,39526.164631
-0.007854,0.000459,-0.017287,-0.057977,-0.048261,1.007861,39526.169665
-0.005724,-0.000607,-0.018352,-0.056421,-0.005872,1.034961,39526.174628
-0.008919,-0.001672,-0.020483,-0.081415,-0.022168,0.989459,39526.179663
-0.005724,-0.001672,-0.010896,-0.088007,-0.076093,0.950549,39526.184631
-0.004658,0.004720,-0.008765,-0.090479,-0.097974,0.983600,39526.189667
-0.001462,0.002589,-0.018352,-0.097894,-0.065198,1.023425,39526.194641
0.004929,0.000459,-0.019418,-0.068140,-0.012006,0.999530,39526.199656
-0.001462,0.006850,-0.020483,-0.056330,-0.015119,0.992663,39526.204628
-0.003593,0.002589,-0.013026,-0.073725,-0.063001,0.989001,39526.209663
0.001733,0.000459,-0.011961,-0.107416,-0.111524,0.993213,39526.214625
-0.002528,-0.000607,-0.015157,-0.098169,-0.089734,0.976916,39526.219661
-0.007854,0.004720,-0.014091,-0.069605,-0.043409,0.990741,39526.224631
-0.003593,0.005785,-0.018352,-0.048181,-0.016034,1.013263,39526.229662
-0.007854,0.003654,-0.018352,-0.072168,-0.052289,1.022784,39526.234633
-0.004658,0.001524,-0.014091,-0.106500,-0.102552,0.977099,39526.239659
-0.002528,-0.000607,-0.006634,-0.106958,-0.098157,0.975543,39526.244645
-0.004658,0.004720,-0.013026,-0.072901,-0.042585,1.009784,39526.249638
-0.002528,0.004720,-0.018352,-0.041590,-0.002393,1.035785,39526.254652
-0.009985,0.000459,-0.019418,-0.066950,-0.016584,1.004291,39526.259634
-0.006789,0.001524,-0.013026,-0.101099,-0.099164,0.977557,39526.264658
-0.002528,-0.004868,-0.015157,-0.071619,-0.069959,1.009692,39526.269632
0.000668,0.001524,-0.015157,-0.058985,-0.007886,1.014178,39526.274654
0.002799,0.004720,-0.015157,-0.082239,-0.025922,0.981402,39526.279629
-0.002528,-0.000607,-0.019418,-0.095697,-0.077832,0.963916,39526.284659
-0.005724,0.005785,-0.013026,-0.096887,-0.107495,0.973346,39526.289637
-0.003593,0.001524,-0.017287,-0.075922,-0.081861,1.006579,39526.294663
-0.000397,-0.002737,-0.015157,-0.050287,-0.022901,1.026172,39526.299634
-0.001462,-0.000607,-0.016222,-0.053949,-0.006238,0.983783,39526.304661
-0.006789,0.003654,-0.020483,-0.092676,-0.050000,0.971148,39526.309638
-0.004658,0.006850,-0.024744,-0.118219,-0.114545,0.972979,39526.314656
-0.007854,0.000459,-0.015157,-0.093317,-0.091748,0.999896,39526.319632
-0.005724,-0.002737,-0.010896,-0.047540,-0.031415,1.011523,39526.324660
-0.005724,-0.000607,-0.013026,-0.043970,-0.000928,1.025165,39526.329631
-0.001462,0.005785,-0.018352,-0.081323,-0.029767,0.983050,39526.334656
0.005994,0.001524,-0.020483,-0.113092,-0.081037,0.946246,39526.339632
-0.002528,0.001524,-0.017287,-0.103754,-0.100812,0.947162,39526.344657
-0.005724,-0.001672,-0.014091,-0.064569,-0.047162,1.000995,39526.349638
-0.002528,0.001524,-0.009830,-0.050928,0.006305,1.018298,39526.354657
-0.000397,0.000459,-0.010896,-0.077753,-0.022351,0.992114,39526.359635
0.003864,0.000459,-0.023679,-0.097528,-0.089002,0.954394,39526.364666
0.001733,0.004720,-0.018352,-0.086267,-0.110517,0.968036,39526.369663
0.000668,0.004720,-0.014091,-0.070612,-0.063092,1.002093,39526.374630
-0.002528,0.001524,-0.011961,-0.063196,-0.014569,0.993487,39526.379657
-0.004658,-0.001672,-0.014091,-0.062006,-0.000287,0.956592,39526.384634
-0.002528,0.001524,-0.021548,-0.076563,-0.056318,0.977191,39526.389676
-0.002528,0.007915,-0.017287,-0.086359,-0.100904,0.996417,39526.394633
-0.002528,0.003654,-0.018352,-0.093591,-0.069776,1.018115,39526.399657
0.002799,-0.003803,-0.016222,-0.061090,-0.014569,0.982684,39526.404627
0.003864,-0.002737,-0.011961,-0.050379,-0.001661,0.985431,39526.409660
0.001733,0.001524,-0.015157,-0.089746,-0.039930,0.969775,39526.414632
0.001733,0.006850,-0.015157,-0.117029,-0.086805,0.959887,39526.419665
0.000668,0.001524,-0.020483,-0.093134,-0.090192,0.964557,39526.424636
-0.002528,0.002589,-0.014091,-0.039850,-0.039746,1.011249,39526.429660
0.001733,0.003654,-0.010896,-0.017053,0.015735,1.037433,39526.434611
0.005994,0.007915,-0.011961,-0.068231,-0.014844,0.994494,39526.439664
0.004929,-0.000607,-0.020483,-0.107691,-0.067029,0.934802,39526.444636
-0.002528,0.002589,-0.021548,-0.095972,-0.102735,0.969958,39526.449664
0.002799,0.002589,-0.015157,-0.059809,-0.061902,1.022601,39526.454633
0.005994,0.005785,-0.014091,-0.052210,-0.014203,1.026446,39526.459660
0.002799,-0.004868,-0.010896,-0.071619,-0.014112,0.986529,39526.464627
0.004929,0.000459,-0.015157,-0.093317,-0.076459,0.977923,39526.469662
0.004929,0.002589,-0.020483,-0.083429,-0.108411,1.004199,39526.474624
0.001733,0.003654,-0.014091,-0.074640,-0.064191,1.002185,39526.479668
-0.004658,-0.002737,-0.011961,-0.073267,-0.006330,0.993304,39526.484633
-0.002528,-0.000607,-0.010896,-0.050653,0.005023,0.987170,39526.489666
0.002799,-0.000607,-0.011961,-0.069055,-0.047620,1.003284,39526.494638
-0.001462,-0.001672,-0.016222,-0.080866,-0.094220,0.991565,39526.499670
0.003864,0.000459,-0.018352,-0.101282,-0.089551,1.004748,39526.504653
0.001733,-0.000607,-0.017287,-0.083704,-0.021985,0.990100,39526.509638
0.001733,-0.000607,-0.011961,-0.050562,0.007129,0.983874,39526.514659
0.001733,0.000459,-0.013026,-0.063379,-0.033429,0.990832,39526.519639
0.008125,-0.000607,-0.009830,-0.090112,-0.084974,0.986255,39526.524664
0.001733,0.000459,-0.020483,-0.098993,-0.096875,0.959613,39526.529634
0.009190,-0.000607,-0.018352,-0.066400,-0.043225,0.972888,39526.534658
0.003864,0.004720,-0.014091,-0.051111,-0.004956,0.996234,39526.539637
0.001733,-0.003803,-0.009830,-0.073358,-0.011640,0.992572,39526.544660
0.001733,-0.001672,-0.010896,-0.105768,-0.080487,0.940844,39526.549634
0.001733,0.006850,-0.016222,-0.104578,-0.104932,0.954577,39526.554656
0.001733,0.005785,-0.019418,-0.078485,-0.054120,1.013904,39526.559634
0.004929,0.003654,-0.017287,-0.070886,-0.007337,1.027087,39526.564658
0.009190,-0.001672,-0.009830,-0.069330,0.007953,0.984881,39526.569641
0.009190,0.002589,-0.009830,-0.078394,-0.051465,0.978473,39526.574664
0.004929,0.002589,-0.016222,-0.088190,-0.096418,0.993670,39526.579638
0.007060,0.004720,-0.016222,-0.086267,-0.081769,0.996051,39526.584661
-0.002528,0.001524,-0.019418,-0.059534,-0.012738,0.986163,39526.589635
0.001733,0.001524,-0.011961,-0.047266,-0.008802,1.002734,39526.594662
0.002799,-0.000607,-0.010896,-0.062738,-0.049085,0.999072,39526.599638
0.004929,-0.005933,-0.011961,-0.094415,-0.109143,0.986438,39526.604659
0.002799,0.002589,-0.015157,-0.102838,-0.087720,0.962634,39526.609637
-0.001462,-0.002737,-0.018352,-0.077570,-0.043042,0.978656,39526.614664
0.001733,0.003654,-0.015157,-0.039484,0.013171,0.983600,39526.619663
-0.000397,0.000459,-0.014091,-0.065759,-0.009992,0.997424,39526.624631
0.004929,-0.003803,-0.007700,-0.098993,-0.076734,0.974078,39526.629665
0.001733,-0.001672,-0.018352,-0.101007,-0.099622,0.964099,39526.634632
-0.002528,0.002589,-0.018352,-0.068964,-0.051465,0.990649,39526.639669
0.007060,0.002589,-0.016222,-0.051294,0.000628,1.010974,39526.644632
0.001733,0.000459,-0.016222,-0.074274,0.000903,0.982593,39526.649662
0.003864,-0.004868,-0.009830,-0.113916,-0.060895,0.946704,39526.654632
0.004929,0.000459,-0.009830,-0.093408,-0.099439,0.959613,39526.659659
0.007060,0.002589,-0.010896,-0.082147,-0.074628,0.996600,39526.664635
0.010255,0.000459,-0.020483,-0.063562,-0.018598,1.000720,39526.669656
0.005994,0.000459,-0.016222,-0.059625,-0.003766,0.955859,39526.674637
0.002799,0.004720,-0.013026,-0.088556,-0.041944,0.952105,39526.679664
-0.001462,0.000459,-0.011961,-0.088373,-0.088636,0.965747,39526.684631
0.005994,0.005785,-0.013026,-0.100916,-0.076184,0.985888,39526.689667
0.002799,0.004720,-0.021548,-0.082147,-0.012738,0.973803,39526.694636
0.007060,0.005785,-0.017287,-0.056330,0.008593,0.978473,39526.699663
0.010255,0.005785,-0.011961,-0.073541,-0.022077,1.003833,39526.704631
0.009190,0.002589,-0.011961,-0.096796,-0.077741,0.988360,39526.709665
0.011321,0.006850,-0.014091,-0.101831,-0.099713,0.978747,39526.714631
0.011321,0.008981,-0.014091,-0.086817,-0.049634,0.985156,39526.719663
0.010255,0.008981,-0.017287,-0.044885,-0.000562,1.011889,39526.724627
0.007060,0.006850,-0.021548,-0.045984,-0.001661,1.024158,39526.729666
0.004929,-0.001672,-0.011961,-0.085352,-0.074170,1.000812,39526.734636
0.007060,-0.003803,-0.007700,-0.060541,-0.074628,1.006946,39526.739666
0.002799,0.001524,-0.016222,-0.045709,-0.020520,1.030383,39526.744635
0.003864,0.003654,-0.019418,-0.063928,-0.004865,0.990466,39526.749667
0.005994,-0.002737,-0.018352,-0.088922,-0.049543,0.940570,39526.754667
-0.000397,-0.003803,-0.016222,-0.088922,-0.049543,0.940570,39526.758649
-0.000397,-0.003803,-0.016222,-0.089014,-0.096875,0.963916,39526.763637
-0.004658,-0.001672,-0.010896,-0.085809,-0.076093,0.991473,39526.764672
-0.000397,-0.001672,-0.007700,-0.085809,-0.076093,0.991473,39526.768652
0.003864,-0.002737,-0.016222,-0.083887,-0.005963,0.991107,39526.773639
0.003864,-0.000607,-0.018352,-0.054132,0.015826,0.968402,39526.778650
0.007060,0.004720,-0.016222,-0.063837,-0.025464,0.993487,39526.783642
0.011321,0.003654,-0.016222,-0.095239,-0.080671,0.985797,39526.788647
0.010255,0.000459,-0.013026,-0.108057,-0.089002,0.972430,39526.793640
0.011321,0.003654,-0.010896,-0.085077,-0.042401,0.965655,39526.798655
0.009190,0.008981,-0.017287,-0.050470,0.003924,1.005664,39526.803636
0.008125,0.003654,-0.022613,-0.051569,-0.011274,1.012073,39526.808650
-0.000397,0.003654,-0.011961,-0.091303,-0.080304,0.991107,39526.813641
0.009190,0.003654,-0.010896,-0.103845,-0.098066,0.963550,39526.818654
0.010255,0.002589,-0.011961,-0.089014,-0.060712,0.987628,39526.823642
0.009190,0.007915,-0.016222,-0.051569,-0.002301,1.011889,39526.828662
0.007060,0.005785,-0.017287,-0.091028,-0.046155,0.991931,39526.833639
0.011321,0.006850,-0.013026,-0.106775,-0.102094,0.970782,39526.838653
0.011321,0.003654,-0.010896,-0.076196,-0.070691,1.001452,39526.843633
0.009190,0.006850,-0.011961,-0.059259,-0.013562,1.032214,39526.848651
0.008125,0.003654,-0.010896,-0.069238,0.010058,1.012622,39526.853640
0.011321,0.003654,-0.021548,-0.077204,-0.046979,0.980578,39526.858651
