//gyro_x,gyro_y,gyro_z,acc_x,acc_y,acc_z,time
0.000668,-0.001672,0.004018,-0.002130,0.042010,0.985980,39457.013238
-0.003593,0.001524,0.002953,-0.004236,0.000903,0.985980,39457.018202
0.001733,0.005785,-0.003439,-0.039392,-0.042585,0.999621,39457.023234
0.002799,0.002589,-0.000243,-0.058069,-0.021619,0.987719,39457.028193
0.000668,-0.006998,-0.005569,-0.031061,0.034411,0.987628,39457.033230
-0.002528,0.000459,0.007214,0.006933,0.051165,1.019214,39457.038192
0.009190,-0.000607,0.006149,-0.010004,0.024157,1.008502,39457.043230
-0.001462,-0.002737,-0.001308,-0.054132,-0.036817,0.988452,39457.048198
0.000668,-0.001672,-0.004504,-0.057520,-0.032148,0.965838,39457.053240
0.000668,0.000459,-0.005569,-0.028955,0.010882,0.998889,39457.058196
0.001733,0.003654,0.004018,0.003454,0.049884,1.027087,39457.063234
-0.000397,-0.000607,0.004018,-0.010553,0.038531,0.996325,39457.068193
0.003864,-0.003803,0.004018,-0.040216,-0.024457,0.974719,39457.073237
0.000668,0.000459,-0.003439,-0.040491,-0.046704,0.979754,39457.078197
-0.000397,0.002589,-0.003439,-0.033991,-0.015760,1.026629,39457.083216
0.002799,-0.001672,0.001888,-0.023737,0.043383,1.026446,39457.088223
-0.002528,-0.003803,0.000822,-0.008539,0.043383,0.979663,39457.093211
-0.001462,0.002589,0.005083,-0.023462,-0.008344,0.982501,39457.098231
-0.001462,0.004720,-0.002373,-0.033258,-0.041852,1.001910,39457.103206
0.000668,-0.000607,0.000822,-0.043512,-0.020520,1.012805,39457.108232
-0.000397,-0.000607,-0.002373,-0.029779,0.033953,1.001086,39457.113206
0.000668,-0.004868,0.001888,0.004462,0.048693,0.979663,39457.118225
0.000668,0.001524,0.004018,-0.008264,0.012255,1.008777,39457.123208
-0.000397,0.000459,0.002953,-0.044519,-0.037183,0.979022,39457.128219
-0.001462,-0.001672,-0.002373,-0.064203,-0.041669,0.973163,39457.133213
-0.004658,0.000459,-0.004504,-0.031976,0.016742,0.987994,39457.138223
-0.001462,0.000459,0.007214,0.008764,0.048144,1.008502,39457.143204
0.000668,-0.000607,-0.001308,-0.003595,0.033679,1.015094,39457.148224
-0.001462,-0.005933,0.006149,-0.045252,-0.018232,0.973712,39457.153215
0.000668,0.001524,0.004018,-0.051752,-0.043500,0.969043,39457.158224
0.002799,0.004720,-0.004504,-0.027307,-0.000196,1.013995,39457.163210
-0.000397,0.000459,-0.002373,-0.005426,0.054461,1.023700,39457.168224
0.001733,0.000459,0.000822,-0.017786,0.043475,1.000171,39457.173204
0.005994,0.000459,0.004018,-0.030878,-0.009351,0.961627,39457.178224
0.004929,0.002589,0.005083,-0.034357,-0.055677,0.996509,39457.183210
0.003864,0.002589,-0.001308,-0.033167,-0.015119,1.025622,39457.188231
0.003864,-0.000607,-0.003439,-0.023096,0.034869,1.007495,39457.192229
-0.002528,-0.002737,0.001888,-0.008539,0.046496,0.978473,39457.197212
-0.001462,-0.000607,0.000822,-0.011560,0.003100,0.983050,39457.202224
0.001733,-0.000607,0.005083,-0.031336,-0.046247,1.001086,39457.207204
0.000668,0.002589,0.000822,-0.050928,-0.028302,1.006671,39457.212201
-0.002528,-0.002737,-0.001308,-0.035089,0.029742,0.991656,39457.217234
-0.001462,0.001524,-0.002373,0.006293,0.053271,1.007220,39457.222200
-0.001462,0.000459,-0.001308,0.000525,0.027453,1.006763,39457.227232
0.004929,-0.000607,0.008279,-0.046167,-0.031964,0.994677,39457.232200
-0.000397,-0.002737,-0.001308,-0.058344,-0.036725,0.969409,39457.237235
-0.000397,0.001524,0.001888,-0.036096,0.002551,0.993213,39457.242196
-0.001462,0.001524,-0.003439,0.006293,0.049426,1.025256,39457.247234
0.001733,-0.004868,-0.001308,-0.004419,0.040179,1.006213,39457.252200
0.001733,-0.004868,0.007214,-0.038751,-0.019239,0.968585,39457.257235
-0.001462,-0.001672,0.001888,-0.044428,-0.052381,0.971972,39457.262192
0.000668,0.001524,-0.001308,-0.031244,-0.013288,1.007495,39457.267243
-0.000397,0.000459,-0.000243,-0.016870,0.041461,1.014178,39457.272199
-0.004658,-0.002737,-0.003439,-0.016046,0.048510,0.977466,39457.277235
0.000668,0.002589,0.000822,-0.025110,-0.003034,0.974902,39457.282202
-0.000397,-0.000607,0.002953,-0.033991,-0.042951,0.996234,39457.287242
0.002799,-0.000607,0.004018,-0.043054,-0.019422,1.022693,39457.292197
0.002799,-0.000607,-0.005569,-0.035639,0.038989,1.008410,39457.297241
0.001733,0.004720,-0.002373,-0.001215,0.056933,0.980761,39457.302199
0.000668,0.000459,-0.002373,-0.000482,0.014270,1.002917,39457.307233
0.004929,0.001524,0.004018,-0.028131,-0.036634,1.006854,39457.312195
0.003864,-0.003803,0.002953,-0.054865,-0.037915,0.993945,39457.317237
0.002799,0.000459,-0.001308,-0.033350,0.009417,0.996692,39457.322201
-0.000397,0.000459,-0.003439,0.006109,0.040179,1.004291,39457.327235
-0.000397,0.002589,-0.000243,0.000159,0.025164,1.013354,39457.332202
0.000668,-0.002737,0.001888,-0.034357,-0.023999,0.982318,39457.337239
-0.004658,-0.002737,0.005083,-0.052759,-0.042218,0.966662,39457.342229
-0.003593,0.002589,0.001888,-0.028955,0.000903,1.005847,39457.347211
0.000668,0.003654,-0.004504,0.000982,0.047320,1.028369,39457.352228
0.003864,-0.002737,-0.006634,-0.008997,0.047595,1.004291,39457.357211
-0.003593,-0.001672,0.002953,-0.039026,-0.008161,0.962085,39457.362226
-0.005724,-0.004868,0.004018,-0.037561,-0.017865,1.012805,39457.367210
-0.000397,0.003654,0.006149,-0.021906,0.033496,1.016742,39457.372231
0.005994,0.000459,-0.000243,-0.007257,0.048053,0.983508,39457.377207
-0.002528,0.003654,0.000822,-0.013666,0.010058,0.969134,39457.382236
-0.002528,-0.000607,-0.000243,-0.031702,-0.043592,0.993121,39457.387211
-0.000397,0.003654,0.005083,-0.050653,-0.031964,1.001269,39457.392228
0.001733,-0.001672,0.001888,-0.038843,0.023608,1.001910,39457.397212
0.000668,-0.002737,0.005083,-0.001398,0.048602,0.987903,39457.402232
-0.002528,0.001524,-0.000243,0.001074,0.023974,1.012256,39457.407212
0.003864,0.002589,-0.005569,-0.036646,-0.024549,1.008319,39457.412227
-0.000397,-0.001672,-0.001308,-0.057520,-0.041211,0.982867,39457.417212
0.002799,-0.003803,0.001888,-0.037103,0.008868,0.987628,39457.422236
0.001733,0.000459,0.006149,0.000159,0.042468,1.010242,39457.427213
-0.006789,0.005785,-0.000243,0.001715,0.034777,1.010333,39457.432229
-0.000397,0.000459,-0.005569,-0.031610,-0.013471,0.977923,39457.437208
0.000668,-0.001672,-0.002373,-0.046900,-0.048627,0.971515,39457.442224
0.001733,0.000459,0.006149,-0.027033,-0.010816,1.008960,39457.447205
-0.000397,0.000459,0.006149,-0.010095,0.038440,1.026538,39457.452223
-0.001462,-0.000607,0.001888,-0.010095,0.045031,0.995318,39457.457212
-0.000397,-0.000607,-0.005569,-0.027490,-0.000379,0.962726,39457.462232
-0.001462,0.004720,-0.002373,-0.034906,-0.044690,0.980945,39457.467230
-0.000397,0.000459,0.000822,-0.036279,-0.022443,1.014636,39457.472198
0.002799,-0.002737,0.004018,-0.028955,0.026995,1.017840,39457.477238
-0.000397,-0.005933,0.005083,-0.007715,0.048510,0.986896,39457.482200
-0.000397,-0.000607,-0.002373,-0.003961,0.017932,0.985156,39457.487235
0.000668,0.002589,-0.005569,-0.032160,-0.031507,0.992022,39457.492208
0.001733,0.001524,-0.002373,-0.054590,-0.033979,0.984698,39457.497236
-0.001462,-0.001672,-0.002373,-0.043787,0.009234,0.986163,39457.502198
0.001733,-0.003803,0.007214,0.000250,0.045398,1.001361,39457.507236
0.000668,0.000459,0.001888,0.004553,0.027911,1.018939,39457.512200
0.004929,0.003654,-0.002373,-0.034723,-0.021436,0.995776,39457.517243
-0.002528,-0.000607,-0.007700,-0.057794,-0.041578,0.967853,39457.522200
0.004929,-0.002737,0.001888,-0.037744,-0.007337,0.989001,39457.527237
-0.003593,0.000459,0.001888,-0.003137,0.042376,1.018664,39457.532201
0.000668,0.001524,0.005083,-0.000299,0.048877,1.014544,39457.537237
0.002799,-0.001672,0.000822,-0.030329,-0.004132,0.978656,39457.542205
-0.002528,0.001524,-0.002373,-0.038934,-0.051374,0.972522,39457.547237
-0.000397,0.002589,-0.003439,-0.032343,-0.027112,1.013537,39457.552200
0.003864,-0.000607,0.002953,-0.018610,0.032855,1.028003,39457.557236
0.001733,-0.002737,0.002953,-0.012018,0.046222,0.989276,39457.562204
0.001733,-0.003803,0.001888,-0.020990,0.012713,0.972339,39457.567240
-0.000397,0.001524,-0.003439,-0.025751,-0.041211,0.991107,39457.572202
0.000668,0.004720,-0.002373,-0.037287,-0.030500,1.004474,39457.577245
0.000668,-0.003803,-0.002373,-0.039942,0.021136,1.004291,39457.582203
0.003864,-0.003803,-0.003439,-0.009912,0.046862,0.980029,39457.587238
-0.001462,-0.000607,0.004018,0.002173,0.026629,0.994677,39457.592220
-0.001462,0.003654,0.002953,-0.030969,-0.024640,0.998248,39457.597216
-0.001462,0.000459,-0.003439,-0.060175,-0.043683,0.981860,39457.602227
0.002799,-0.003803,0.000822,-0.048456,0.002734,0.983691,39457.607213
-0.000397,0.001524,-0.001308,-0.003687,0.049975,1.007678,39457.612230
0.003864,0.002589,0.006149,0.009405,0.047503,1.014544,39457.617210
0.001733,-0.001672,0.002953,-0.031610,-0.008161,0.990466,39457.622229
-0.000397,0.001524,-0.003439,-0.057886,-0.045148,0.968493,39457.627209
0.001733,0.001524,-0.002373,-0.037927,-0.014661,1.001086,39457.632230
-0.000397,0.000459,-0.001308,-0.005976,0.036792,1.024707,39457.637213
-0.003593,-0.000607,0.005083,-0.003504,0.049517,1.018115,39457.642223
0.008125,-0.004868,0.002953,-0.026117,0.006579,0.975635,39457.647207
-0.000397,0.002589,-0.002373,-0.038568,-0.045789,0.971789,39457.652230
-0.000397,0.003654,-0.005569,-0.033991,-0.030774,1.007678,39457.657212
0.001733,0.003654,0.000822,-0.030054,0.026446,1.018115,39457.662227
-0.003593,-0.006998,0.001888,-0.012842,0.055468,0.995318,39457.667211
-0.001462,-0.001672,0.001888,-0.004328,0.025714,0.982684,39457.672228
0.001733,0.000459,0.005083,-0.023645,-0.026563,0.997333,39457.677215
-0.002528,0.003654,-0.006634,-0.051019,-0.037824,1.001636,39457.682224
-0.002528,0.001524,-0.000243,-0.045801,0.006305,0.992846,39457.687213
0.000668,-0.001672,-0.001308,-0.003687,0.048236,0.994403,39457.692231
0.002799,0.001524,0.001888,0.009680,0.037616,1.007220,39457.697214
0.001733,0.001524,0.002953,-0.029596,-0.021344,0.994311,39457.702230
0.000668,-0.001672,0.000822,-0.059442,-0.046704,0.974811,39457.707211
-0.000397,-0.003803,-0.004504,-0.041773,-0.006971,0.986529,39457.712211
-0.001462,0.004720,-0.001308,-0.001581,0.037799,1.010974,39457.717233
0.000668,-0.001672,0.004018,0.002356,0.048510,1.015643,39457.722204
0.000668,-0.004868,0.006149,-0.036279,0.002826,0.974353,39457.727238
-0.001462,-0.001672,-0.003439,-0.051843,-0.042401,0.958789,39457.732199
-0.003593,0.003654,0.001888,-0.036737,-0.020246,1.005939,39457.737243
-0.000397,0.002589,-0.002373,-0.014490,0.033313,1.029193,39457.742203
-0.000397,0.000459,-0.003439,-0.010370,0.053729,1.006488,39457.747237
0.001733,0.000459,0.004018,-0.023737,0.019671,0.977008,39457.752199
0.002799,0.002589,0.002953,-0.033991,-0.032972,0.980212,39457.757250
-0.000397,0.003654,0.002953,-0.033624,-0.033521,1.002551,39457.762206
0.000668,0.000459,-0.001308,-0.034082,0.015735,1.017566,39457.767236
-0.000397,0.001524,-0.000243,-0.012567,0.041827,0.994220,39457.772207
0.002799,-0.000607,0.001888,-0.001398,0.023516,0.991473,39457.777236
-0.002528,0.003654,0.006149,-0.023828,-0.029767,1.008410,39457.782200
0.002799,-0.003803,0.000822,-0.048914,-0.044965,0.995959,39457.787230
-0.000397,0.003654,-0.002373,-0.048731,-0.002118,0.993121,39457.792205
-0.001462,0.002589,-0.005569,-0.008631,0.046222,1.006854,39457.797233
-0.003593,0.000459,-0.002373,0.012976,0.048419,1.015368,39457.801233
-0.003593,0.000459,-0.002373,-0.026483,-0.004132,0.997058,39457.806196
0.001733,-0.000607,0.000822,-0.026483,-0.004132,0.997058,39457.807246
0.001733,-0.001672,0.002953,-0.058618,-0.039838,0.963092,39457.811239
-0.002528,-0.001672,0.000822,-0.041590,-0.019971,0.978015,39457.816203
0.004929,0.002589,0.000822,-0.013208,0.034045,1.015094,39457.821234
0.001733,0.000459,-0.005569,-0.000025,0.055102,1.007495,39457.826202
0.002799,0.000459,0.004018,-0.027399,0.013171,0.966205,39457.831233
-0.007854,0.001524,0.002953,-0.046808,-0.042218,0.959063,39457.836204
0.000668,0.004720,0.006149,-0.038019,-0.035077,0.999072,39457.841209
0.002799,-0.000607,-0.004504,-0.025202,0.029834,1.030566,39457.846225
0.004929,0.000459,-0.002373,-0.008173,0.058581,0.998523,39457.851200
0.007060,-0.001672,0.002953,-0.013300,0.025073,0.978106,39457.856229
0.004929,-0.001672,0.002953,-0.026666,-0.027387,0.990649,39457.861206
-0.001462,0.001524,0.005083,-0.046900,-0.042401,1.012622,39457.866228
0.001733,0.001524,0.004018,-0.041315,0.005023,1.007220,39457.871206
0.001733,0.000459,-0.004504,-0.013849,0.041735,0.995318,39457.876227
-0.002528,0.002589,0.000822,0.004187,0.037616,1.002917,39457.881205
0.001733,0.000459,-0.002373,-0.020807,-0.015760,0.990741,39457.886229
0.000668,-0.002737,0.005083,-0.052851,-0.048444,0.982043,39457.891218
-0.002528,0.000459,-0.000243,-0.050104,-0.009534,0.983966,39457.896226
0.000668,-0.002737,-0.001308,-0.007715,0.035418,1.003741,39457.901212
-0.006789,0.001524,-0.000243,0.009497,0.052630,1.023425,39457.906228
-0.001462,-0.001672,-0.000243,-0.025110,0.005847,0.991198,39457.911200
-0.001462,-0.004868,-0.000243,-0.054590,-0.041669,0.963366,39457.916226
0.001733,-0.000607,0.004018,-0.040033,-0.026746,0.994037,39457.921206
-0.002528,0.000459,-0.002373,-0.014032,0.024157,1.022876,39457.926234
0.001733,0.001524,-0.005569,-0.006525,0.052905,1.012805,39457.931204
-0.005724,-0.002737,-0.000243,-0.037287,-0.036267,0.973712,39457.936228
0.000668,-0.001672,0.002953,-0.036463,-0.035352,1.003741,39457.941206
-0.002528,-0.002737,0.004018,-0.032617,0.017566,1.014087,39457.946227
0.003864,0.000459,0.004018,-0.016687,0.052539,0.991565,39457.951211
-0.002528,0.000459,-0.002373,-0.004053,0.038897,0.977557,39457.956229
0.001733,0.001524,-0.005569,-0.020807,-0.020337,0.990558,39457.961207
-0.006789,0.002589,0.000822,-0.048364,-0.039746,0.992389,39457.966226
-0.001462,-0.001672,0.008279,-0.058710,-0.004041,0.997516,39457.971229
0.002799,-0.002737,0.001888,-0.020532,0.043933,1.000079,39457.976201
0.002799,0.001524,-0.000243,0.012518,0.050433,1.010425,39457.981233
0.005994,0.005785,-0.003439,-0.015863,-0.000196,1.004474,39457.986208
-0.003593,-0.000607,-0.007700,-0.050928,-0.046155,0.974627,39457.991235
0.002799,-0.002737,0.006149,-0.048456,-0.023084,0.982226,39457.996200
0.001733,-0.000607,0.006149,-0.013208,0.028827,1.018756,39458.001232
0.000668,-0.000607,0.001888,0.004553,0.048327,1.020770,39458.006200
0.002799,0.001524,-0.000243,-0.022913,0.010608,0.992114,39458.011232
-0.000397,-0.001672,-0.007700,-0.048914,-0.042218,0.967578,39458.016204
-0.003593,-0.000607,0.002953,-0.036463,-0.036451,0.998980,39458.021234
0.001733,-0.000607,0.000822,-0.017786,0.013354,1.028003,39458.026204
-0.000397,-0.002737,0.004018,-0.007990,0.057483,1.004474,39458.031238
0.004929,-0.001672,0.005083,-0.013757,0.029651,0.969409,39458.036200
0.000668,-0.000607,-0.003439,-0.028131,-0.026197,0.970508,39458.041236
0.001733,0.001524,-0.002373,-0.043421,-0.041578,1.003192,39458.046200
0.002799,-0.002737,0.000822,-0.044245,0.007586,1.007586,39458.051236
0.000668,-0.005933,0.007214,-0.019525,0.050433,0.990741,39458.056199
-0.002528,-0.000607,-0.002373,-0.001032,0.044574,0.986163,39458.061235
0.005994,0.006850,0.000822,-0.021356,-0.011182,0.996783,39458.066200
-0.000397,0.001524,-0.005569,-0.052484,-0.047620,0.984057,39458.071229
0.000668,0.000459,-0.000243,-0.056055,-0.015027,0.979114,39458.076201
-0.000397,-0.000607,0.000822,-0.014398,0.034503,1.001452,39458.081236
-0.002528,0.004720,0.006149,0.014532,0.054278,1.023700,39458.086206
-0.000397,0.003654,-0.003439,-0.017053,0.011798,0.996325,39458.091213
0.003864,0.001524,-0.002373,-0.051386,-0.042127,0.964740,39458.096194
-0.000397,-0.000607,-0.001308,-0.047266,-0.031324,0.983691,39458.101210
-0.001462,0.001524,0.004018,-0.020166,0.015551,1.018756,39458.106228
-0.001462,-0.000607,0.002953,0.000708,0.050708,1.021686,39458.111206
0.002799,-0.002737,0.004018,-0.017969,0.024615,0.979022,39458.116228
-0.001462,0.001524,-0.001308,-0.036463,-0.033979,0.965198,39458.121213
-0.001462,0.002589,-0.003439,-0.038202,-0.038007,1.001727,39458.126226
0.001733,0.001524,-0.005569,-0.030145,0.010882,1.019214,39458.131204
-0.001462,-0.003803,0.006149,-0.013757,0.051165,1.006488,39458.136230
0.004929,-0.001672,0.004018,-0.009088,0.035968,0.975726,39458.141203
0.002799,-0.000607,0.002953,-0.020990,-0.019147,0.987719,39458.146230
-0.001462,0.002589,-0.005569,-0.040033,-0.044873,0.996051,39458.151207
-0.001462,0.000459,-0.003439,-0.047998,-0.009900,1.003009,39458.156230
-0.002528,-0.004868,0.004018,-0.020441,0.038256,0.992114,39458.161209
-0.001462,-0.001672,0.005083,0.005743,0.044574,1.003467,39458.166225
0.003864,-0.000607,0.001888,-0.016779,-0.001020,1.003833,39458.171206
-0.003593,0.002589,0.002953,-0.052759,-0.042676,0.982959,39458.176231
-0.000397,-0.001672,-0.008765,-0.053674,-0.023175,0.978290,39458.181208
-0.003593,0.002589,0.001888,-0.019159,0.019946,1.008502,39458.186226
-0.003593,-0.001672,-0.001308,0.005652,0.053912,1.015552,39458.191208
-0.000397,0.001524,0.002953,-0.021173,0.019854,0.988360,39458.196227
0.001733,-0.000607,0.001888,-0.050653,-0.036176,0.959704,39458.201205
-0.001462,0.001524,-0.000243,-0.047907,-0.039380,0.981402,39458.206227
0.000668,0.002589,-0.000243,-0.019800,0.012896,1.021594,39458.211207
0.000668,0.000459,0.000822,-0.006342,0.057940,1.016559,39458.216227
0.001733,-0.004868,0.002953,-0.016504,0.037890,0.983233,39458.221205
-0.005724,0.002589,0.002953,-0.032251,-0.026654,0.969867,39458.226232
0.003864,0.002589,0.000822,-0.038568,-0.050916,0.996234,39458.231211
0.001733,0.003654,-0.001308,-0.039484,0.002459,1.021411,39458.236203
-0.002528,-0.002737,-0.003439,-0.019342,0.046405,1.003009,39458.241233
-0.000397,-0.000607,0.004018,0.003271,0.040912,0.988818,39458.246205
0.001733,0.004720,0.004018,-0.015314,-0.012006,0.998523,39458.251231
0.002799,-0.000607,0.000822,-0.047907,-0.049543,0.993762,39458.256206
-0.005724,0.002589,-0.007700,-0.052851,-0.018048,0.988543,39458.261235
-0.000397,-0.001672,-0.002373,-0.018701,0.031939,0.996142,39458.266198
0.000668,0.001524,-0.001308,0.011786,0.052539,1.014361,39458.271233
0.001733,-0.001672,0.007214,-0.011743,0.015918,1.002276,39458.276203
0.003864,-0.001672,0.006149,-0.052393,-0.037275,0.970508,39458.281240
-0.002528,-0.004868,-0.004504,-0.054224,-0.030866,0.973712,39458.286203
0.001733,0.002589,-0.003439,-0.022730,0.017382,1.016376,39458.291236
-0.002528,0.001524,-0.002373,0.004004,0.056933,1.025531,39458.296204
0.001733,-0.004868,-0.002373,-0.008631,0.031207,0.989825,39458.301233
0.002799,-0.001672,0.005083,-0.040857,-0.028302,0.964465,39458.306202
-0.000397,0.001524,-0.001308,-0.043329,-0.044965,0.986438,39458.311235
-0.001462,0.000459,-0.001308,-0.029138,0.008136,1.019488,39458.316209
-0.000397,0.002589,-0.005569,-0.018610,0.047870,1.008685,39458.321236
-0.004658,-0.003803,-0.002373,-0.015222,0.044940,0.975818,39458.326202
0.000668,-0.000607,0.004018,-0.021082,-0.016767,0.989276,39458.331209
0.000668,0.003654,0.001888,-0.039758,-0.047712,1.002460,39458.336206
0.001733,0.000459,-0.004504,-0.049005,-0.016675,1.011798,39458.341218
0.004929,0.001524,-0.004504,-0.026666,0.042559,0.998980,39458.346227
-0.001462,-0.000607,-0.001308,0.003454,0.048144,0.995410,39458.351206
0.001733,-0.002737,0.001888,-0.007898,0.006121,0.998156,39458.356226
-0.000397,0.000459,0.006149,-0.046442,-0.044690,0.986896,39458.361206
0.000668,-0.001672,-0.003439,-0.054315,-0.027112,0.977191,39458.366228
0.001733,0.000459,0.001888,-0.025751,0.019580,1.003833,39458.371215
-0.005724,0.002589,-0.008765,0.009314,0.053271,1.008410,39458.376234
-0.002528,0.000459,-0.000243,-0.019342,0.020312,1.004016,39458.381213
0.000668,-0.003803,0.002953,-0.049097,-0.032331,0.966205,39458.386233
-0.002528,-0.001672,0.004018,-0.047815,-0.046704,0.982684,39458.390258
-0.002528,-0.001672,0.004018,-0.019434,0.010241,1.025073,39458.395234
0.000668,0.003654,-0.001308,-0.019434,0.010241,1.025073,39458.396240
0.002799,0.001524,-0.004504,-0.002954,0.053088,1.023791,39458.400265
0.002799,0.001524,-0.004504,-0.014398,0.039630,0.991839,39458.405214
-0.000397,-0.003803,-0.003439,-0.029962,-0.016858,0.964831,39458.406238
0.000668,0.000459,0.002953,-0.029962,-0.016858,0.964831,39458.410258
-0.000397,-0.001672,0.004018,-0.038294,-0.046064,0.995501,39458.415227
-0.002528,-0.000607,0.005083,-0.037287,-0.004041,1.016742,39458.420248
-0.002528,-0.001672,-0.004504,-0.020258,0.040545,0.993854,39458.425220
0.002799,0.001524,-0.002373,-0.006250,0.046405,0.980761,39458.430253
0.000668,-0.000607,0.001888,-0.014948,-0.002942,0.986987,39458.435216
-0.005724,0.002589,0.002953,-0.037653,-0.052198,0.992389,39458.440259
0.001733,0.000459,0.000822,-0.049280,-0.020795,0.992846,39458.445213
0.001733,-0.001672,-0.001308,-0.029596,0.035235,0.990375,39458.450262
-0.001462,0.006850,-0.004504,0.002356,0.055743,1.003924,39458.455217
0.000668,-0.000607,-0.001308,-0.005976,0.020770,1.002826,39458.460260
-0.006789,-0.002737,0.008279,-0.047907,-0.038190,0.987903,39458.465239
-0.001462,-0.002737,0.002953,-0.053034,-0.033704,0.984881,39458.470230
-0.001462,0.000459,-0.003439,-0.022089,0.013354,1.006030,39458.475246
-0.003593,0.003654,-0.003439,0.006109,0.050616,1.026813,39458.480228
0.003864,-0.000607,-0.001308,-0.014581,0.030932,0.998523,39458.485243
0.000668,0.002589,-0.000243,-0.044153,-0.036267,0.965838,39458.490234
0.000668,0.002589,0.000822,-0.026575,-0.003949,1.018664,39458.495259
-0.000397,-0.000607,-0.000243,-0.013666,0.047686,1.023517,39458.500233
0.005994,0.002589,0.001888,-0.009912,0.043567,0.983691,39458.505245
-0.001462,-0.002737,-0.006634,-0.024469,-0.013288,0.974261,39458.510233
-0.004658,0.003654,0.001888,-0.039026,-0.045789,0.994494,39458.515252
-0.002528,-0.001672,-0.002373,-0.042780,-0.018323,1.013080,39458.520232
-0.000397,-0.002737,0.001888,-0.023462,0.037616,1.000445,39458.525250
-0.000397,-0.002737,0.005083,0.000708,0.048877,0.985156,39458.530234
0.000668,0.004720,-0.003439,-0.009729,0.006305,0.997333,39458.535246
0.000668,0.001524,0.002953,-0.042047,-0.038739,0.989825,39458.540233
-0.000397,-0.002737,0.000822,-0.055689,-0.030500,0.980212,39458.545243
-0.005724,-0.004868,0.005083,-0.026575,0.018390,0.992572,39458.550233
0.002799,-0.001672,0.001888,0.006933,0.054278,1.007495,39458.555247
-0.002528,-0.000607,-0.001308,-0.011652,0.023974,1.005664,39458.560230
-0.001462,0.005785,-0.006634,-0.043146,-0.032972,0.967669,39458.565246
-0.002528,-0.000607,-0.001308,-0.055597,-0.048169,0.974078,39458.570246
0.000668,-0.001672,0.002953,-0.023645,0.006121,1.015277,39458.575217
-0.001462,0.000459,0.005083,0.003363,0.052996,1.026904,39458.580256
0.000668,0.000459,-0.000243,-0.007349,0.042834,0.999072,39458.585225
-0.000397,-0.001672,-0.000243,-0.032434,-0.015577,0.966021,39458.590260
-0.001462,-0.002737,-0.005569,-0.039392,-0.052838,0.984149,39458.595227
-0.002528,0.001524,0.004018,-0.032251,-0.012555,1.025165,39458.600258
0.000668,0.000459,0.006149,-0.018335,0.041369,1.012713,39458.605217
-0.000397,-0.000607,0.004018,-0.006159,0.038440,0.987536,39458.610260
-0.002528,0.001524,-0.006634,-0.016229,-0.005323,0.976458,39458.615220
-0.005724,0.001524,-0.005569,-0.040766,-0.048627,1.002093,39458.620257
-0.001462,0.000459,-0.000243,-0.043970,-0.023542,1.004474,39458.625217
-0.003593,-0.005933,0.001888,-0.024927,0.029010,0.992663,39458.630258
-0.000397,0.000459,0.006149,0.007666,0.055285,1.001727,39458.635218
-0.003593,0.000459,0.001888,-0.000391,0.026263,0.997241,39458.640255
-0.000397,0.000459,-0.001308,-0.047174,-0.034620,0.983600,39458.645227
-0.001462,-0.000607,-0.003439,-0.057428,-0.036267,0.976733,39458.650258
-0.002528,-0.003803,-0.003439,-0.031610,0.009784,0.995318,39458.655224
0.002799,-0.001672,0.004018,0.002814,0.047046,1.028644,39458.660263
-0.000397,0.003654,-0.000243,-0.002313,0.034869,1.000537,39458.665212
-0.001462,-0.000607,-0.001308,-0.049005,-0.028302,0.974170,39458.670259
-0.000397,0.002589,-0.006634,-0.049372,-0.044507,0.964007,39458.675218
0.000668,0.001524,-0.001308,-0.027674,-0.009351,1.012622,39458.680260
0.002799,-0.000607,0.000822,-0.006342,0.045581,1.017383,39458.685218
0.000668,-0.003803,0.008279,-0.011102,0.043475,0.986804,39458.690265
0.003864,0.000459,-0.001308,-0.032984,-0.007245,0.973620,39458.695246
-0.004658,0.004720,-0.004504,-0.035455,-0.047528,0.994311,39458.700237
0.001733,0.002589,-0.001308,-0.035730,-0.019056,1.020587,39458.705249
-0.002528,-0.001672,-0.004504,-0.033441,0.031207,1.012622,39458.710230
0.002799,-0.003803,0.007214,-0.005701,0.051989,0.979022,39458.715248
-0.002528,0.002589,0.002953,-0.006525,0.011889,0.998523,39458.720227
-0.000397,0.002589,0.000822,-0.027857,-0.035443,1.000445,39458.725252
0.004929,-0.002737,-0.003439,-0.053949,-0.035627,0.992114,39458.730236
-0.000397,-0.003803,0.001888,-0.033075,0.018664,0.992572,39458.735246
0.001733,-0.001672,-0.001308,0.008856,0.052447,0.997699,39458.740235
-0.002528,-0.002737,0.005083,-0.003137,0.023974,1.016559,39458.745243
0.003864,0.001524,0.005083,-0.041040,-0.028943,0.976184,39458.750234
-0.001462,-0.001672,-0.005569,-0.059351,-0.049085,0.966388,39458.755247
-0.005724,0.003654,-0.007700,-0.029413,0.003466,1.005664,39458.760236
-0.002528,0.003654,-0.000243,0.003180,0.050433,1.020862,39458.765246
-0.000397,-0.002737,0.004018,-0.005335,0.048693,1.006030,39458.770229
0.000668,-0.001672,0.001888,-0.034448,-0.007154,0.966754,39458.775251
-0.000397,0.003654,0.000822,-0.042139,-0.046338,0.977008,39458.780242
-0.003593,0.002589,-0.004504,-0.030969,-0.010541,1.015460,39458.785246
0.002799,-0.000607,-0.001308,-0.019159,0.037616,1.011523,39458.790236
-0.001462,-0.003803,0.004018,-0.012293,0.048510,0.985614,39458.795259
-0.003593,-0.001672,0.004018,-0.020807,0.002368,0.966754,39458.800229
-0.000397,0.003654,0.000822,-0.033075,-0.049726,1.005572,39458.805251
-0.000397,0.001524,-0.002373,-0.043878,-0.030683,1.007770,39458.810233
-0.004658,-0.004868,-0.002373,-0.034357,0.026172,0.999347,39458.815244
-0.001462,0.000459,0.002953,-0.003412,0.057666,0.993121,39458.820250
0.002799,0.001524,-0.000243,-0.001123,0.025256,0.995044,39458.825219
-0.001462,-0.003803,0.005083,-0.037470,-0.031598,0.989734,39458.830264
-0.000397,-0.000607,0.000822,-0.056970,-0.034162,0.985156,39458.835219
0.004929,0.001524,-0.002373,-0.036737,0.010974,0.993396,39458.840268
-0.001462,0.000459,-0.002373,-0.002405,0.042193,1.021594,39458.845222
-0.000397,0.000459,0.001888,-0.001947,0.038256,1.003650,39458.850259
-0.001462,-0.001672,0.004018,-0.046350,-0.024457,0.979846,39458.855224
0.001733,-0.000607,-0.000243,-0.054956,-0.041944,0.954028,39458.860264
-0.001462,0.002589,-0.003439,-0.033441,-0.012006,0.998431,39458.865227
-0.004658,0.000459,-0.004504,-0.004053,0.046862,1.028461,39458.870260
0.000668,-0.005933,-0.000243,-0.003137,0.047961,1.002093,39458.875225
-0.003593,0.001524,0.001888,-0.027490,-0.002942,0.972888,39458.880258
-0.001462,-0.000607,0.005083,-0.042780,-0.045789,0.979480,39458.885226
0.004929,0.001524,-0.002373,-0.042963,-0.024274,1.004291,39458.890260
0.001733,0.000459,-0.003439,-0.036188,0.029101,1.015002,39458.895226
-0.000397,-0.000607,-0.000243,-0.009363,0.053180,0.974353,39458.900259
0.000668,0.001524,0.004018,-0.010187,0.013995,0.994311,39458.905214
-0.002528,-0.001672,0.006149,-0.026300,-0.035260,1.002002,39458.910259
0.003864,0.000459,0.004018,-0.046991,-0.036817,1.004748,39458.915222
0.000668,0.001524,-0.002373,-0.040857,0.021411,0.991565,39458.920262
0.000668,0.001524,-0.005569,-0.001673,0.052081,0.985888,39458.925220
-0.001462,0.000459,0.001888,0.000342,0.026904,1.008960,39458.930259
0.000668,-0.000607,0.001888,-0.031885,-0.027845,0.991290,39458.935225
0.004929,0.000459,0.007214,-0.053400,-0.048261,0.981769,39458.940260
0.002799,0.003654,-0.000243,-0.036737,-0.004865,1.005481,39458.945236
0.002799,0.001524,-0.002373,0.002447,0.043841,1.013537,39458.950232
0.003864,0.001524,-0.003439,-0.000482,0.041735,1.009967,39458.955250
-0.004658,-0.005933,0.000822,-0.031793,-0.006971,0.966662,39458.960232
0.005994,-0.000607,0.005083,-0.032434,-0.015943,1.018847,39458.965247
-0.003593,-0.002737,0.000822,-0.011469,0.038714,1.024432,39458.970231
0.002799,0.000459,-0.003439,-0.008447,0.048968,0.997058,39458.975255
0.005994,-0.001672,-0.000243,-0.021265,0.001727,0.970324,39458.980233
0.002799,0.001524,-0.004504,-0.039850,-0.049634,0.983050,39458.985247
0.000668,-0.000607,0.005083,-0.042688,-0.032331,1.000628,39458.990235
0.002799,0.000459,0.002953,-0.032434,0.019030,1.000445,39458.995249
0.000668,-0.002737,0.001888,-0.004328,0.051806,0.989734,39459.000239
-0.002528,0.000459,-0.005569,-0.000574,0.029193,0.992755,39459.005245
0.000668,0.003654,0.000822,-0.000574,0.029193,0.992755,39459.009247
0.000668,0.003654,0.000822,-0.030969,-0.028302,0.998248,39459.014216
0.001733,-0.005933,-0.001308,-0.057062,-0.037458,0.991290,39459.015255
-0.002528,-0.001672,0.001888,-0.057062,-0.037458,0.991290,39459.019257
-0.002528,-0.001672,0.001888,-0.046808,0.009600,0.992755,39459.024215
0.001733,-0.000607,-0.000243,-0.000208,0.046588,1.015185,39459.025255
-0.002528,0.003654,0.000822,-0.000208,0.046588,1.015185,39459.029241
0.001733,0.003654,-0.002373,0.003912,0.043658,1.014544,39459.034207
0.005994,-0.002737,-0.000243,-0.037287,-0.017041,0.988543,39459.039246
0.002799,-0.001672,0.002953,-0.055963,-0.046796,0.961810,39459.044217
0.002799,0.002589,0.001888,-0.037836,-0.020246,0.992206,39459.049240
0.000668,0.004720,0.001888,-0.006891,0.043017,1.029284,39459.054223
-0.002528,-0.000607,-0.002373,-0.000757,0.049060,1.008594,39459.059245
-0.002528,-0.000607,-0.001308,-0.039484,-0.049268,0.979937,39459.064241
-0.000397,-0.004868,0.001888,-0.037927,-0.027112,1.022235,39459.069218
0.004929,-0.000607,0.004018,-0.028314,0.026263,1.026263,39459.074244
0.003864,-0.000607,-0.002373,-0.012110,0.053546,0.986255,39459.079225
-0.001462,-0.000607,-0.001308,-0.017420,0.016650,0.986072,39459.084241
-0.000397,-0.001672,-0.002373,-0.026666,-0.035718,0.990375,39459.089221
0.000668,-0.000607,-0.000243,-0.046716,-0.040021,1.003284,39459.094239
0.004929,-0.003803,0.005083,-0.040216,0.017199,1.000720,39459.099223
0.001733,-0.001672,0.008279,-0.004236,0.054370,0.991931,39459.104238
0.004929,0.002589,-0.002373,0.003271,0.029284,0.995501,39459.109220
-0.001462,0.000459,-0.002373,-0.030145,-0.023450,0.987079,39459.114246
-0.001462,0.002589,0.000822,-0.061456,-0.049359,0.974170,39459.119219
-0.001462,-0.004868,0.005083,-0.042047,-0.008069,0.992938,39459.124243
0.001733,0.000459,0.001888,0.002264,0.046954,1.023608,39459.129222
-0.001462,0.003654,0.002953,0.006109,0.045031,1.032580,39459.134245
0.002799,-0.000607,-0.003439,-0.029505,-0.006147,0.985797,39459.139216
0.002799,-0.002737,-0.003439,-0.049280,-0.044965,0.965747,39459.144241
0.005994,0.000459,-0.000243,-0.036554,-0.013105,0.995685,39459.149217
-0.000397,0.000459,0.005083,-0.013117,0.035052,1.021228,39459.154238
-0.002528,-0.000607,-0.000243,-0.007715,0.050525,1.002002,39459.159220
-0.003593,-0.001672,-0.001308,-0.018976,0.010608,0.971148,39459.164244
-0.001462,0.003654,0.000822,-0.031061,-0.046521,0.987170,39459.169217
0.000668,0.001524,-0.004504,-0.040582,-0.037275,1.012713,39459.174244
0.000668,-0.000607,-0.000243,-0.038843,0.022509,1.006488,39459.179221
0.002799,-0.002737,0.001888,-0.009455,0.059405,0.992114,39459.184222
0.007060,0.001524,0.004018,-0.001032,0.033862,0.980395,39459.189245
-0.001462,0.004720,-0.004504,-0.024195,-0.029035,1.008685,39459.194216
0.002799,0.001524,-0.003439,-0.046442,-0.039472,0.999438,39459.199253
0.008125,-0.002737,0.001888,-0.042871,-0.000196,1.007220,39459.204216
0.002799,-0.000607,0.000822,-0.007349,0.051165,1.003650,39459.209248
0.000668,0.003654,0.006149,-0.000208,0.038256,1.006122,39459.214220
-0.000397,0.002589,0.001888,-0.035089,-0.015668,0.991382,39459.219244
0.000668,0.000459,-0.002373,-0.056696,-0.052106,0.971789,39459.224213
-0.002528,-0.000607,-0.001308,-0.034448,-0.016675,0.989093,39459.229247
0.001733,-0.000607,0.001888,-0.003412,0.037616,1.024249,39459.234209
-0.001462,-0.001672,0.004018,0.000342,0.053820,1.010516,39459.239250
0.000668,-0.000607,0.000822,-0.032800,0.006945,0.973712,39459.244213
0.000668,-0.001672,0.004018,-0.047449,-0.036451,0.961444,39459.249259
-0.000397,0.002589,-0.005569,-0.039758,-0.027021,1.007312,39459.254216
-0.000397,-0.002737,-0.001308,-0.023645,0.031573,1.024798,39459.259247
-0.003593,-0.002737,0.004018,-0.010095,0.057208,0.992206,39459.264215
-0.000397,0.000459,0.008279,-0.018244,0.022601,0.968951,39459.269253
-0.001462,0.004720,-0.003439,-0.030237,-0.034253,0.980121,39459.274216
0.004929,0.002589,-0.001308,-0.042597,-0.038282,1.003924,39459.279246
0.000668,0.000459,-0.002373,-0.039392,0.017932,1.011065,39459.284217
0.001733,-0.001672,0.001888,-0.008539,0.054736,0.984881,39459.289244
-0.000397,-0.004868,0.000822,0.004278,0.036151,0.996325,39459.294219
-0.003593,0.001524,0.001888,-0.026850,-0.020612,1.001727,39459.299251
0.005994,0.004720,0.000822,-0.057337,-0.044233,0.988269,39459.304243
-0.000397,0.001524,-0.007700,-0.044336,-0.009534,0.982867,39459.309221
0.001733,0.000459,-0.005569,-0.005884,0.040820,1.004565,39459.314244
0.001733,0.000459,0.006149,0.005926,0.048236,1.022326,39459.319221
-0.001462,-0.000607,-0.001308,-0.026850,-0.001111,0.986896,39459.324243
-0.000397,-0.000607,-0.001308,-0.052942,-0.040479,0.971148,39459.329219
-0.001462,0.004720,-0.003439,-0.041406,-0.017682,0.996417,39459.334240
-0.000397,-0.000607,-0.005569,-0.013666,0.030658,1.023791,39459.339220
-0.001462,0.000459,0.006149,0.000982,0.056659,1.009326,39459.344245
-0.002528,-0.008064,0.004018,-0.019708,0.019946,0.974536,39459.349223
0.002799,0.003654,0.004018,-0.035364,-0.043500,0.970508,39459.354244
-0.001462,0.002589,-0.004504,-0.043237,-0.041852,1.004840,39459.359217
0.002799,0.000459,-0.006634,-0.034082,0.016558,1.015094,39459.364242
0.001733,-0.002737,0.004018,-0.012750,0.048785,0.989184,39459.369224
-0.003593,-0.003803,0.002953,-0.005792,0.033313,0.968585,39459.374245
0.001733,0.000459,0.008279,-0.024927,-0.023816,0.989551,39459.379217
-0.000397,0.002589,-0.002373,-0.047540,-0.037549,0.995501,39459.384248
0.001733,-0.000607,-0.002373,-0.050195,0.003009,0.996600,39459.389221
0.001733,-0.001672,-0.004504,-0.016321,0.049243,0.992938,39459.394245
0.000668,0.002589,0.002953,0.003271,0.042834,1.009418,39459.399225
0.001733,-0.002737,0.005083,-0.020899,-0.009076,1.008410,39459.404246
0.003864,-0.002737,-0.000243,-0.056330,-0.045606,0.979846,39459.409224
0.000668,-0.002737,-0.000243,-0.049738,-0.017408,0.979480,39459.414241
-0.000397,0.005785,-0.002373,-0.009088,0.035327,1.009601,39459.419221
-0.001462,0.001524,0.001888,0.008490,0.052630,1.013446,39459.424241
0.002799,-0.002737,0.007214,-0.019800,0.006945,0.992297,39459.429245
0.001733,-0.004868,0.004018,-0.043787,-0.046247,0.963550,39459.434216
0.000668,0.002589,0.000822,-0.037836,-0.036817,1.004931,39459.439248
-0.000397,0.003654,-0.001308,-0.022730,0.022326,1.025531,39459.444222
0.004929,-0.001672,-0.003439,-0.013025,0.052813,1.001544,39459.449249
-0.000397,0.003654,0.001888,-0.016962,0.024981,0.979571,39459.454222
0.001733,-0.001672,0.005083,-0.026758,-0.033063,0.982409,39459.459250
0.002799,0.002589,-0.002373,-0.034723,-0.039380,1.010882,39459.464219
0.003864,0.000459,0.002953,-0.037287,0.008685,1.018939,39459.469248
0.001733,0.000459,-0.004504,-0.012567,0.049609,0.983325,39459.474219
0.000668,-0.000607,-0.003439,-0.000299,0.037616,0.987903,39459.479250
0.001733,0.000459,0.006149,-0.017877,-0.020154,0.995501,39459.484216
-0.000397,-0.002737,0.001888,-0.050836,-0.053205,0.992663,39459.489256
0.002799,0.003654,-0.000243,-0.051843,-0.015302,0.982043,39459.494216
-0.001462,0.001524,-0.002373,-0.019159,0.036334,0.990283,39459.499257
-0.001462,0.002589,-0.003439,0.004736,0.049792,1.008136,39459.504214
-0.002528,-0.000607,0.001888,-0.017603,0.005023,1.001452,39459.509250
-0.000397,0.000459,0.006149,-0.046808,-0.038007,0.982135,39459.514220
-0.002528,0.000459,-0.000243,-0.041956,-0.015668,0.993579,39459.519247
0.003864,0.002589,-0.001308,-0.013757,0.035876,1.021777,39459.524215
0.000668,-0.000607,-0.004504,-0.000208,0.057025,1.025348,39459.529249
0.002799,-0.003803,-0.000243,-0.040674,-0.045697,0.965838,39459.534216
0.003864,0.001524,0.006149,-0.041681,-0.044782,0.991565,39459.539248
0.001733,0.000459,0.004018,-0.030695,0.008227,1.021045,39459.544220
0.001733,0.000459,-0.000243,-0.011926,0.045764,0.997607,39459.549250
-0.001462,0.002589,-0.003439,-0.009912,0.030108,0.972796,39459.554216
-0.001462,0.002589,-0.000243,-0.025293,-0.021711,0.992755,39459.559247
-0.007854,0.001524,-0.000243,-0.042871,-0.040754,1.005572,39459.564235
-0.000397,-0.000607,0.006149,-0.044794,-0.002393,1.007312,39459.569222
0.001733,0.000459,0.000822,-0.012293,0.049517,1.002551,39459.574245
-0.001462,0.001524,0.000822,0.008673,0.049517,1.008044,39459.579225
-0.002528,0.004720,-0.006634,-0.021356,-0.006238,1.003100,39459.584239
0.008125,-0.001672,0.004018,-0.054315,-0.045423,0.982867,39459.589223
-0.002528,-0.005933,0.005083,-0.052210,-0.018232,0.984698,39459.594246
0.001733,-0.002737,0.006149,-0.009638,0.029925,1.001269,39459.599221
-0.000397,0.001524,0.002953,0.009497,0.054644,1.010058,39459.604249
0.002799,0.000459,-0.003439,-0.026575,0.010791,0.980578,39459.609223
-0.003593,-0.000607,-0.001308,-0.055963,-0.046247,0.955859,39459.614242
-0.003593,-0.002737,0.000822,-0.041956,-0.036725,0.985064,39459.619224
-0.000397,-0.000607,0.006149,-0.014124,0.018573,1.031940,39459.624240
-0.002528,0.000459,-0.002373,0.000342,0.055285,1.020312,39459.628238
-0.002528,0.000459,-0.002373,-0.015589,0.028827,0.982135,39459.633222
0.005994,0.002589,-0.002373,-0.015589,0.028827,0.982135,39459.634257
0.003864,0.006850,-0.006634,-0.034540,-0.026288,0.974902,39459.638237
0.000668,-0.000607,-0.000243,-0.039850,-0.038099,1.004016,39459.643220
-0.000397,-0.000607,-0.000243,-0.035730,0.010058,1.023242,39459.648240
0.001733,-0.001672,0.006149,-0.014856,0.049975,0.993213,39459.653222
0.001733,-0.004868,-0.000243,-0.003229,0.034777,0.985339,39459.658238
-0.002528,0.001524,-0.006634,-0.021356,-0.018781,0.997333,39459.663222
-0.001462,-0.001672,-0.003439,-0.048731,-0.051923,0.999621,39459.668235
0.000668,-0.001672,0.002953,-0.052851,-0.014203,0.987353,39459.673220
-0.001462,-0.004868,0.005083,-0.023004,0.032946,0.985431,39459.678214
0.001733,-0.000607,0.005083,0.003912,0.051257,1.010058,39459.683252
-0.003593,0.002589,-0.006634,-0.008997,0.003924,1.014636,39459.688211
-0.001462,-0.000607,-0.004504,-0.042871,-0.039289,0.985705,39459.693253
0.000668,-0.000607,0.001888,-0.049646,-0.020795,0.980578,39459.698206
0.001733,0.002589,0.002953,-0.017877,0.028735,1.003284,39459.703244
0.003864,0.000459,0.002953,0.004828,0.057666,1.015918,39459.708211
0.003864,0.001524,-0.003439,-0.019251,0.022052,0.983783,39459.713263
0.001733,0.001524,-0.004504,-0.042322,-0.043134,0.968768,39459.718212
0.000668,-0.001672,-0.000243,-0.042871,-0.047620,0.990466,39459.723247
0.002799,0.000459,0.000822,-0.026209,0.005572,1.028552,39459.728220
-0.000397,-0.001672,0.007214,-0.012293,0.049975,1.002460,39459.733248
0.002799,-0.003803,-0.000243,-0.010462,0.032489,0.970050,39459.738212
-0.001462,0.001524,0.001888,-0.026117,-0.022351,0.971148,39459.743254
-0.007854,0.005785,-0.000243,-0.042413,-0.047437,1.004474,39459.748213
-0.008919,0.000459,-0.003439,-0.045984,-0.001569,1.016650,39459.753247
-0.000397,-0.001672,0.007214,-0.022547,0.042376,1.011889,39459.758209
-0.003593,-0.002737,0.004018,0.001440,0.049426,1.001727,39459.763248
0.005994,0.004720,-0.002373,-0.011377,0.001361,1.016284,39459.768211
0.003864,0.001524,-0.000243,-0.042597,-0.035535,0.998065,39459.773251
-0.003593,-0.001672,-0.000243,-0.054407,-0.019422,0.985797,39459.778209
0.003864,-0.004868,0.002953,-0.018518,0.031939,0.992846,39459.783247
-0.002528,-0.003803,0.004018,0.010962,0.050250,1.011157,39459.788211
0.000668,-0.001672,0.004018,-0.013300,0.011523,0.998523,39459.793255
-0.001462,0.002589,-0.000243,-0.046533,-0.050000,0.959430,39459.798213
-0.002528,-0.002737,-0.003439,-0.050562,-0.049176,0.968127,39459.803246
-0.005724,0.003654,-0.000243,-0.021997,0.013812,1.005481,39459.808235
-0.005724,-0.001672,0.002953,-0.000665,0.057116,1.004840,39459.813226
-0.005724,-0.001672,0.004018,-0.021265,0.032946,0.987353,39459.818246
-0.002528,0.001524,0.005083,-0.033350,-0.020520,0.970599,39459.823220
-0.004658,0.003654,-0.006634,-0.036371,-0.034711,1.007678,39459.828234
0.003864,0.002589,-0.004504,-0.035364,0.014270,1.028644,39459.833223
0.003864,-0.002737,0.000822,-0.021265,0.052264,1.005115,39459.838231
0.002799,-0.005933,0.010410,-0.002771,0.045764,0.983050,39459.843223
0.003864,0.001524,-0.004504,-0.013849,-0.013105,0.986438,39459.848237
0.000668,0.002589,-0.004504,-0.040766,-0.054486,1.006854,39459.853228
0.002799,0.003654,-0.005569,-0.053674,-0.023267,0.996142,39459.858239
-0.003593,-0.001672,-0.004504,-0.026209,0.023974,0.983874,39459.863224
-0.001462,0.001524,0.006149,0.011420,0.044940,1.006122,39459.868235
-0.000397,0.002589,0.004018,-0.004236,0.005938,1.013537,39459.873228
-0.002528,0.000459,0.004018,-0.044245,-0.042127,0.986529,39459.878238
-0.000397,-0.001672,-0.001308,-0.054773,-0.026288,0.977923,39459.883223
0.000668,-0.000607,-0.001308,-0.021448,0.028277,1.004291,39459.888239
-0.002528,0.002589,-0.001308,0.007757,0.059497,1.025989,39459.893226
0.007060,-0.001672,0.008279,-0.014032,0.028003,0.993121,39459.898240
-0.002528,-0.003803,0.008279,-0.048914,-0.030866,0.961993,39459.903227
-0.001462,0.004720,-0.006634,-0.051019,-0.042127,0.975543,39459.908246
-0.000397,0.004720,-0.005569,-0.029596,0.004382,1.014911,39459.913227
-0.000397,0.002589,0.002953,-0.005426,0.050158,1.020770,39459.918237
0.000668,-0.004868,-0.002373,-0.008447,0.040820,0.977740,39459.923222
0.002799,-0.002737,0.004018,-0.024561,-0.026838,0.969134,39459.928240
-0.000397,0.002589,0.001888,-0.040033,-0.047071,0.992846,39459.933248
-0.003593,0.004720,-0.007700,-0.042780,-0.005231,1.013812,39459.938218
-0.001462,-0.001672,-0.001308,-0.023737,0.045764,1.002093,39459.943247
-0.005724,-0.002737,0.001888,0.001623,0.048510,0.987170,39459.948214
0.000668,0.001524,0.006149,-0.014307,-0.004224,1.010242,39459.953258
0.002799,0.001524,-0.000243,-0.041132,-0.040662,0.996142,39459.958213
-0.000397,0.001524,-0.001308,-0.056421,-0.024091,0.990191,39459.963250
0.002799,0.001524,-0.009830,-0.028681,0.033587,0.982867,39459.968217
-0.001462,0.002589,-0.002373,0.006659,0.052905,1.002551,39459.973251
0.001733,0.001524,0.004018,-0.011194,0.013995,1.005481,39459.978212
0.000668,-0.000607,0.002953,-0.045984,-0.037915,0.975451,39459.983249
-0.002528,0.000459,-0.001308,-0.049005,-0.040387,0.970141,39459.988216
-0.001462,0.005785,-0.005569,-0.023371,0.009692,1.011798,39459.993250
-0.005724,0.001524,-0.003439,0.003271,0.053180,1.018847,39459.998210
0.003864,-0.002737,0.000822,-0.012201,0.029834,0.996051,39460.003251
-0.000397,-0.000607,0.006149,-0.035639,-0.023359,0.964099,39460.008214
-0.002528,-0.000607,0.000822,-0.043329,-0.051465,0.994677,39460.013255
0.001733,0.002589,-0.003439,-0.029321,-0.000745,1.029468,39460.018210
-0.000397,-0.000607,-0.003439,-0.012659,0.050799,1.021594,39460.023251
-0.002528,-0.000607,-0.002373,-0.001398,0.048785,0.988360,39460.028212
-0.003593,-0.003803,0.000822,-0.019708,-0.010266,0.980578,39460.033252
-0.001462,0.000459,0.001888,-0.037836,-0.046521,0.987994,39460.038214
-0.003593,0.003654,0.000822,-0.052851,-0.014936,1.001452,39460.043253
-0.002528,-0.002737,-0.005569,-0.031976,0.038073,0.977374,39460.048213
-0.002528,0.002589,-0.004504,0.002264,0.046954,0.994037,39460.053250
-0.002528,0.002589,0.004018,-0.002954,0.011523,1.005023,39460.058212
-0.000397,-0.001672,-0.001308,-0.041681,-0.039380,0.993304,39460.063226
0.002799,0.000459,0.004018,-0.058710,-0.027112,0.975635,39460.068250
-0.000397,0.002589,-0.002373,-0.029779,0.025988,0.997333,39460.073225
-0.000397,0.004720,-0.001308,0.006933,0.057025,1.019855,39460.078236
-0.006789,-0.000607,-0.005569,-0.004877,0.028003,1.012439,39460.083225
0.002799,-0.001672,0.004018,-0.049188,-0.031598,0.983691,39460.088236
0.003864,-0.000607,0.004018,-0.052393,-0.047803,0.973895,39460.093227
0.005994,0.002589,-0.000243,-0.000940,0.050341,1.028186,39460.098238
-0.000397,0.000459,-0.000243,-0.003137,0.041644,0.991198,39460.103225
-0.005724,-0.001672,-0.006634,-0.028497,-0.020246,0.967303,39460.108238
-0.001462,-0.001672,0.001888,-0.035272,-0.050000,0.989276,39460.113230
-0.002528,-0.001672,0.008279,-0.036920,-0.013196,1.022967,39460.118241
0.000668,0.002589,0.002953,-0.022180,0.041095,0.997699,39460.123222
-0.003593,-0.000607,0.001888,-0.005792,0.048968,0.976001,39460.128244
-0.002528,-0.003803,-0.005569,-0.017877,0.004657,0.982776,39460.133228
-0.003593,0.003654,-0.000243,-0.043054,-0.040754,1.000812,39460.138236
-0.002528,0.001524,0.000822,-0.048639,-0.021253,1.003192,39460.143223
0.002799,-0.004868,0.006149,-0.030512,0.029010,0.997882,39460.148247
0.001733,-0.000607,0.004018,0.008490,0.051989,1.002551,39460.153224
0.003864,0.004720,-0.003439,-0.002222,0.022052,1.006946,39460.158240
0.000668,0.000459,-0.003439,-0.045160,-0.034803,0.985614,39460.163225
0.003864,0.000459,0.002953,-0.056146,-0.038922,0.971332,39460.168237
0.001733,-0.004868,0.007214,-0.025842,0.006121,1.001910,39460.173227
0.001733,0.000459,0.001888,0.005743,0.050433,1.023791,39460.178216
-0.003593,0.003654,-0.005569,-0.007807,0.033770,1.008319,39460.183259
0.000668,0.002589,-0.005569,-0.039209,-0.022901,0.964007,39460.188213
-0.000397,0.000459,-0.002373,-0.046259,-0.050183,0.975543,39460.193254
-0.003593,-0.001672,0.000822,-0.031153,-0.003308,1.014087,39460.198219
-0.000397,0.001524,0.006149,-0.014765,0.050433,1.019763,39460.203252
-0.002528,0.001524,-0.000243,-0.009088,0.053820,0.983874,39460.208217
0.001733,0.001524,-0.003439,-0.023462,-0.005689,0.977374,39460.213255
-0.000397,-0.000607,-0.002373,-0.036829,-0.046064,0.996600,39460.218215
0.000668,0.001524,-0.001308,-0.044794,-0.023267,1.010516,39460.223247
0.002799,-0.002737,0.001888,-0.032892,0.033953,0.993762,39460.227262
0.002799,-0.002737,0.001888,-0.006616,0.046313,0.979388,39460.232216
0.001733,-0.001672,0.004018,-0.006616,0.046313,0.979388,39460.233259
-0.001462,0.005785,-0.004504,-0.010278,0.009600,0.992846,39460.237259
-0.001462,0.005785,-0.004504,-0.039118,-0.041669,1.004931,39460.242214
-0.000397,0.005785,0.000822,-0.039118,-0.041669,1.004931,39460.243261
0.001733,-0.002737,-0.004504,-0.051294,-0.032148,0.998523,39460.247251
-0.006789,-0.002737,0.002953,-0.027857,0.019854,1.000537,39460.252217
0.000668,0.001524,0.007214,0.008307,0.051806,1.007953,39460.257252
0.000668,0.004720,-0.002373,-0.007532,0.032031,1.003284,39460.262221
0.003864,-0.000607,-0.001308,-0.048090,-0.028394,0.976825,39460.267250
-0.002528,-0.000607,-0.004504,-0.057794,-0.046888,0.970141,39460.272217
0.000668,-0.000607,0.004018,-0.026941,-0.001752,1.007037,39460.277253
-0.000397,-0.002737,0.005083,0.002814,0.045855,1.027362,39460.282219
-0.001462,0.000459,0.001888,-0.011560,0.045031,0.994037,39460.287256
0.000668,-0.001672,0.004018,-0.039667,-0.011365,0.954486,39460.292216
-0.003593,0.002589,-0.007700,-0.046076,-0.042768,0.968768,39460.297251
-0.003593,0.006850,-0.003439,-0.030329,-0.008161,1.018115,39460.302228
0.001733,0.001524,0.002953,-0.021539,0.040088,1.018664,39460.307251
-0.003593,-0.001672,0.002953,-0.006708,0.051074,0.990832,39460.312243
0.001733,0.002589,0.005083,-0.014215,0.002642,0.980578,39460.317232
-0.001462,0.003654,-0.007700,-0.035272,-0.049176,0.998614,39460.322242
-0.000397,0.002589,-0.003439,-0.048090,-0.031415,1.002734,39460.327229
-0.000397,-0.003803,0.000822,-0.034632,0.022876,0.997973,39460.332244
-0.000397,-0.001672,0.002953,0.003729,0.052630,0.990649,39460.337224
-0.002528,0.002589,0.002953,0.001715,0.018756,1.008777,39460.342248
-0.001462,-0.002737,-0.004504,-0.033716,-0.031415,1.000537,39460.347224
0.002799,-0.001672,-0.002373,-0.054041,-0.039380,0.987536,39460.352242
-0.000397,-0.003803,0.000822,-0.028864,0.008685,0.991015,39460.357229
-0.005724,-0.001672,0.001888,0.000799,0.046588,1.009601,39460.362248
-0.000397,-0.000607,0.002953,-0.011560,0.035968,1.003192,39460.367229
-0.000397,0.000459,0.000822,-0.038294,-0.018964,0.965198,39460.372244
0.000668,-0.001672,0.002953,-0.043878,-0.050641,0.971606,39460.377228
-0.004658,-0.001672,-0.002373,-0.031061,-0.005231,1.012713,39460.382246
0.001733,0.003654,-0.001308,-0.007990,0.049151,1.027179,39460.387227
0.000668,-0.008064,0.004018,-0.005701,0.055560,0.992846,39460.392249
0.001733,-0.000607,0.001888,-0.025293,-0.000013,0.963183,39460.397232
-0.004658,0.002589,-0.003439,-0.042871,-0.044507,0.984698,39460.402243
0.000668,0.003654,-0.002373,-0.043604,-0.026563,1.012988,39460.407226
-0.003593,-0.001672,-0.001308,-0.027857,0.030658,1.008502,39460.412245
0.001733,-0.001672,0.005083,-0.008356,0.048510,0.987079,39460.417232
-0.004658,-0.000607,0.002953,-0.010828,0.007220,0.986896,39460.422250
0.001733,0.004720,-0.002373,-0.036279,-0.040937,0.998980,39460.427224
0.000668,-0.000607,-0.000243,-0.047632,-0.036817,0.996966,39460.432223
0.000668,-0.003803,-0.005569,-0.033991,0.015460,0.992206,39460.437253
-0.003593,0.002589,0.005083,0.004004,0.054644,1.003558,39460.442221
-0.002528,0.001524,0.005083,0.000067,0.034137,1.009967,39460.447259
-0.001462,-0.000607,0.001888,-0.041956,-0.024732,0.990008,39460.452215
-0.000397,0.000459,-0.001308,-0.059351,-0.044416,0.974261,39460.457255
-0.005724,0.000459,-0.004504,-0.031793,-0.007245,0.998523,39460.462220
0.001733,-0.001672,0.001888,0.000342,0.047412,1.028461,39460.467252
-0.000397,0.001524,0.000822,-0.006616,0.047412,1.005572,39460.472221
0.001733,-0.005933,0.004018,-0.036463,-0.009259,0.970416,39460.477258
-0.002528,0.002589,-0.000243,-0.043787,-0.050000,0.961352,39460.482218
-0.002528,0.000459,-0.003439,-0.035272,-0.019880,1.011065,39460.487254
-0.002528,0.002589,-0.000243,-0.017969,0.040454,1.024432,39460.492218
-0.001462,-0.005933,0.000822,-0.008447,0.051532,0.983966,39460.497256
0.001733,-0.002737,0.005083,-0.019434,0.006671,0.968402,39460.502218
-0.001462,0.004720,0.001888,-0.035730,-0.047528,0.990191,39460.507254
-0.000397,0.000459,-0.003439,-0.045435,-0.031324,1.013629,39460.512222
-0.001462,0.003654,-0.000243,-0.037287,0.022601,1.004291,39460.517255
-0.000397,-0.002737,-0.004504,-0.007166,0.054370,0.981860,39460.522216
0.001733,0.003654,0.004018,-0.004694,0.018481,1.003741,39460.527255
-0.001462,0.001524,0.005083,-0.030603,-0.033063,1.003558,39460.532215
0.003864,-0.001672,0.002953,-0.054498,-0.041578,0.992755,39460.537256
0.002799,-0.000607,-0.003439,-0.040674,0.004565,0.998065,39460.542219
0.001733,0.002589,-0.005569,0.003546,0.049701,1.006122,39460.547254
-0.000397,-0.000607,-0.000243,-0.000391,0.041369,1.014911,39460.552233
-0.000397,-0.003803,0.002953,-0.036005,-0.017133,0.983325,39460.557254
0.003864,0.001524,0.002953,-0.049005,-0.053113,0.968951,39460.562224
-0.002528,0.000459,-0.001308,-0.035364,-0.016401,1.003100,39460.567230
0.000668,0.001524,-0.001308,-0.008081,0.045214,1.016925,39460.572247
-0.000397,-0.001672,-0.003439,-0.008539,0.048785,1.008960,39460.577232
-0.003593,-0.009129,0.002953,-0.026483,0.004107,0.963458,39460.582246
0.001733,-0.001672,0.004018,-0.038111,-0.048169,0.981311,39460.587227
-0.000397,-0.000607,0.001888,-0.035364,-0.018872,1.010791,39460.592255
-0.003593,-0.001672,-0.004504,-0.031885,0.029010,1.010608,39460.597229
-0.000397,-0.000607,-0.005569,-0.014581,0.057757,0.987445,39460.602246
-0.000397,0.003654,0.000822,-0.009088,0.017566,0.976642,39460.607230
-0.003593,-0.001672,0.004018,-0.031336,-0.042218,0.996600,39460.612248
0.000668,0.002589,0.002953,-0.050928,-0.040204,1.007220,39460.617232
0.001733,-0.005933,-0.005569,-0.041406,0.010791,0.991382,39460.622243
0.003864,0.004720,0.000822,-0.005060,0.052264,0.999072,39460.627227
-0.001462,0.004720,-0.004504,0.009680,0.037799,1.005298,39460.632248
0.000668,-0.000607,0.002953,-0.031610,-0.024732,1.002185,39460.637229
-0.002528,-0.004868,0.000822,-0.058435,-0.045240,0.979571,39460.642250
-0.003593,0.001524,0.001888,-0.041498,-0.008435,0.992846,39460.647229
0.002799,0.003654,-0.002373,0.000525,0.044757,1.025531,39460.652244
0.002799,-0.001672,-0.007700,0.001898,0.046405,1.019214,39460.657229
0.001733,-0.000607,0.001888,-0.050012,-0.047071,0.963916,39460.662246
0.002799,-0.000607,0.000822,-0.036463,-0.022443,1.004474,39460.667228
-0.002528,-0.001672,0.002953,-0.017145,0.035327,1.021411,39460.672254
0.002799,0.001524,-0.000243,-0.011743,0.056933,0.987170,39460.677229
-0.003593,-0.000607,-0.005569,-0.016504,0.008776,0.971423,39460.682227
-0.002528,-0.000607,-0.003439,-0.030603,-0.039106,0.989276,39460.687249
-0.002528,0.001524,0.001888,-0.043329,-0.033521,1.016376,39460.692217
0.003864,-0.000607,0.004018,-0.037836,0.018206,1.013904,39460.697258
0.004929,-0.000607,0.000822,-0.009455,0.053363,0.981677,39460.702217
-0.000397,-0.000607,-0.005569,0.003088,0.027545,0.991748,39460.707257
-0.000397,0.002589,-0.006634,-0.022638,-0.027753,1.004016,39460.712217
-0.000397,-0.000607,-0.001308,-0.054041,-0.041120,0.999988,39460.717256
0.003864,-0.002737,0.002953,-0.043604,0.004840,0.989551,39460.722223
-0.000397,-0.001672,0.006149,-0.001123,0.044757,1.000262,39460.727255
0.002799,0.005785,-0.001308,0.007391,0.037616,1.019671,39460.732222
0.002799,0.001524,-0.004504,-0.029688,-0.016858,0.994586,39460.737257
-0.000397,-0.001672,-0.000243,-0.056330,-0.047895,0.964831,39460.742220
0.000668,-0.004868,0.002953,-0.038843,-0.013013,0.994769,39460.747255
-0.001462,0.000459,0.000822,-0.001764,0.040362,1.025348,39460.752217
-0.002528,0.002589,0.000822,0.001806,0.046405,1.012439,39460.757254
0.001733,0.000459,-0.003439,-0.031519,0.004748,0.969592,39460.762221
0.001733,-0.002737,-0.004504,-0.047357,-0.042310,0.958606,39460.767257
-0.002528,0.000459,0.002953,-0.037378,-0.029035,0.999072,39460.772222
0.001733,0.001524,0.004018,-0.023096,0.027362,1.019580,39460.777258
-0.002528,-0.000607,0.000822,-0.009821,0.051349,0.993121,39460.782221
0.002799,-0.002737,0.000822,-0.013025,0.015826,0.977008,39460.787266
-0.002528,0.004720,-0.001308,-0.030969,-0.036451,0.990649,39460.792222
0.000668,0.001524,-0.002373,-0.046533,-0.036725,1.012073,39460.797258
-0.001462,-0.002737,0.001888,-0.042505,0.013812,1.003375,39460.802228
0.003864,-0.004868,0.004018,-0.007807,0.050250,0.990558,39460.807257
0.001733,-0.001672,-0.000243,0.004919,0.033038,0.993213,39460.812241
-0.004658,0.002589,0.000822,-0.026300,-0.023908,1.002551,39460.817231
-0.001462,0.003654,-0.003439,-0.052759,-0.049085,0.980029,39460.822254
0.001733,-0.005933,-0.001308,-0.049921,-0.012647,0.980853,39460.827234
-0.001462,-0.000607,0.004018,-0.005609,0.041461,1.000812,39460.832251
0.000668,0.007915,0.001888,0.004462,0.046679,1.013812,39460.837234
-0.000397,-0.004868,-0.000243,-0.027948,-0.001661,0.986896,39460.842256
0.002799,0.002589,-0.000243,-0.050745,-0.045240,0.971789,39460.846246
0.002799,0.002589,-0.000243,-0.037561,-0.023359,1.001452,39460.851221
0.001733,0.001524,-0.001308,-0.037561,-0.023359,1.001452,39460.852254
0.004929,0.000459,0.002953,-0.013483,0.034869,1.026629,39460.856247
0.001733,0.001524,0.005083,-0.011286,0.056292,1.004016,39460.861220
0.005994,-0.003803,-0.000243,-0.026300,0.011615,0.966662,39460.866248
-0.002528,-0.003803,0.001888,-0.037744,-0.046888,0.970782,39460.871230
-0.002528,0.001524,-0.005569,-0.040216,-0.041669,1.004657,39460.876248
0.001733,0.003654,-0.002373,-0.031519,0.016650,1.014087,39460.881224
0.001733,-0.003803,0.002953,-0.009363,0.051349,0.988177,39460.886255
-0.002528,-0.003803,-0.001308,-0.006342,0.031298,0.975268,39460.891226
-0.002528,0.003654,-0.000243,-0.025293,-0.028302,0.992389,39460.896242
-0.002528,0.005785,-0.004504,-0.049555,-0.034986,0.996417,39460.901226
0.002799,-0.002737,-0.004504,-0.051111,0.005755,0.998889,39460.906247
0.001733,-0.002737,0.001888,-0.010004,0.051623,1.000995,39460.911220
0.001733,0.001524,0.002953,0.010596,0.042285,1.008868,39460.916232
0.000668,0.003654,0.001888,-0.021173,-0.015485,1.003741,39460.921225
0.000668,0.002589,-0.003439,-0.059625,-0.048719,0.974444,39460.926243
0.001733,0.000459,-0.005569,-0.053217,-0.025464,0.978473,39460.931249
-0.001462,0.001524,-0.000243,-0.010095,0.034320,1.009601,39460.936222
0.000668,0.000459,0.005083,0.007483,0.052172,1.017749,39460.941253
0.002799,-0.001672,0.002953,-0.018335,0.008136,0.988635,39460.946221
0.003864,0.003654,-0.004504,-0.045435,-0.041852,0.972430,39460.951249
-0.002528,-0.000607,-0.002373,-0.037927,-0.030957,1.001727,39460.956220
0.000668,0.001524,-0.006634,-0.019342,0.025256,1.024798,39460.961251
-0.002528,-0.001672,0.000822,-0.013117,0.055468,1.001544,39460.966214
0.002799,-0.003803,0.005083,-0.017969,0.023516,0.976367,39460.971250
-0.003593,-0.000607,0.001888,-0.024744,-0.037549,0.981219,39460.976222
-0.002528,0.000459,-0.003439,-0.036829,-0.043409,1.013354,39460.981254
0.000668,-0.000607,-0.004504,-0.038477,0.011615,1.010058,39460.986223
-0.000397,-0.002737,-0.001308,-0.013300,0.051165,0.984607,39460.991249
0.001733,-0.000607,0.002953,-0.000116,0.043109,0.977374,39460.996221
-0.002528,0.001524,0.001888,-0.027307,-0.019696,0.988910,39461.001263
0.003864,-0.004868,0.001888,-0.053583,-0.043592,0.981860,39461.006219
0.001733,0.002589,-0.003439,-0.057611,-0.010999,0.982959,39461.011251
-0.001462,-0.002737,-0.001308,-0.018335,0.039813,0.997699,39461.016218
-0.001462,0.006850,-0.000243,0.006476,0.049792,1.017016,39461.021256
0.002799,-0.002737,0.002953,-0.021631,0.003009,1.003009,39461.026217
0.003864,0.003654,0.007214,-0.050470,-0.045514,0.973620,39461.031251
-0.001462,-0.001672,-0.004504,-0.044153,-0.027021,0.992846,39461.036227
0.000668,0.003654,-0.004504,-0.011743,0.029193,1.026172,39461.041229
0.005994,0.001524,-0.002373,0.007208,0.055194,1.018847,39461.046220
0.003864,-0.005933,0.007214,-0.019800,0.013171,0.984332,39461.051232
-0.000397,-0.004868,0.002953,-0.040949,-0.043683,0.969226,39461.056248
-0.002528,0.004720,0.001888,-0.040949,-0.047162,1.003100,39461.061232
-0.002528,0.002589,-0.003439,-0.029413,0.013720,1.015460,39461.066247
0.000668,-0.002737,-0.005569,-0.014581,0.052539,0.993762,39461.071226
-0.003593,-0.000607,0.002953,-0.009821,0.030017,0.973163,39461.076248
0.003864,0.001524,0.002953,-0.023920,-0.021527,0.983050,39461.081223
0.000668,0.001524,0.001888,-0.042871,-0.042035,0.998248,39461.086244
0.000668,0.001524,-0.003439,-0.049188,-0.000287,0.995135,39461.091224
-0.002528,-0.003803,-0.002373,-0.017511,0.047503,0.985522,39461.096250
0.001733,0.002589,0.000822,0.005560,0.046038,1.004016,39461.101228
0.004929,-0.003803,0.005083,-0.018335,-0.002301,1.012164,39461.106247
0.003864,0.002589,0.005083,-0.054773,-0.047254,0.986438,39461.111223
-0.000397,0.001524,-0.001308,-0.053034,-0.020154,0.980853,39461.116252
-0.000397,0.000459,-0.009830,-0.013941,0.023425,1.008410,39461.121223
-0.001462,0.004720,-0.001308,0.010504,0.046862,1.017749,39461.126245
-0.000397,-0.002737,0.006149,-0.017603,0.008227,0.989825,39461.131226
-0.003593,-0.002737,0.002953,-0.048456,-0.045423,0.960528,39461.136247
-0.002528,0.001524,0.002953,-0.046167,-0.034711,0.991290,39461.141228
-0.002528,0.001524,-0.005569,-0.018976,0.019214,1.022326,39461.146250
-0.004658,0.000459,-0.002373,-0.004694,0.059314,1.013537,39461.151223
0.001733,-0.002737,-0.002373,-0.019892,0.029651,0.973529,39461.156248
0.003864,-0.001672,0.006149,-0.036737,-0.034620,0.966937,39461.161221
0.000668,-0.002737,0.008279,-0.040216,-0.039472,1.000537,39461.166245
0.003864,0.002589,-0.001308,-0.035547,0.011523,1.021686,39461.171232
-0.001462,0.001524,-0.003439,-0.014032,0.048510,0.995776,39461.176225
0.002799,-0.001672,-0.003439,0.000159,0.036334,0.979022,39461.181245
-0.000397,0.002589,0.001888,-0.017969,-0.018323,0.996142,39461.186223
-0.002528,-0.000607,0.005083,-0.043787,-0.044965,0.998065,39461.191249
0.002799,0.001524,0.006149,-0.051935,-0.015027,0.990558,39461.196220
0.000668,0.004720,-0.002373,-0.015405,0.032306,0.998523,39461.201257
-0.000397,0.002589,-0.005569,0.014441,0.045306,1.015735,39461.206222
-0.000397,-0.000607,-0.002373,-0.011194,-0.000379,1.005389,39461.211253
0.001733,-0.001672,0.001888,-0.056604,-0.044416,0.984057,39461.216217
0.000668,0.000459,0.005083,-0.015680,0.028735,1.008136,39461.221257
0.000668,0.001524,-0.000243,0.009863,0.061602,1.015918,39461.226220
-0.002528,0.005785,-0.002373,-0.016687,0.024340,0.986529,39461.231252
-0.002528,-0.000607,-0.000243,-0.044061,-0.032880,0.962634,39461.236220
0.001733,-0.005933,0.002953,-0.048456,-0.039197,0.983325,39461.241253
0.001733,-0.001672,0.004018,-0.028497,0.009417,1.018298,39461.246221
0.001733,0.002589,0.002953,-0.012018,0.051440,1.006030,39461.251257
0.001733,-0.001672,-0.009830,-0.012934,0.032489,0.978198,39461.256223
0.004929,0.000459,-0.002373,-0.028131,-0.027021,0.978656,39461.261263
0.002799,0.003654,0.000822,-0.040766,-0.048536,1.004199,39461.266221
0.000668,0.001524,0.001888,-0.041773,-0.000013,1.010242,39461.271251
-0.003593,-0.002737,0.005083,-0.019068,0.047503,0.997699,39461.276229
0.000668,-0.000607,-0.001308,0.010779,0.049243,1.005572,39461.281260
-0.004658,0.004720,-0.001308,-0.006616,-0.007154,1.010608,39461.286217
-0.002528,0.002589,-0.004504,-0.046808,-0.046155,0.997424,39461.291232
0.003864,-0.003803,0.004018,-0.057703,-0.021527,0.980029,39461.296231
0.001733,-0.004868,0.006149,-0.024927,0.028552,0.993945,39461.301231
-0.000397,0.004720,-0.001308,0.008764,0.051074,1.009692,39461.306248
0.002799,0.002589,-0.004504,-0.013300,0.009143,0.994311,39461.311229
-0.002528,-0.001672,0.001888,-0.050012,-0.042493,0.964648,39461.316249
-0.000397,-0.006998,0.001888,-0.050379,-0.038282,0.979297,39461.321224
-0.000397,0.000459,0.006149,-0.021814,0.019488,1.010058,39461.326244
0.004929,0.001524,-0.001308,0.001440,0.054644,1.015185,39461.331224
0.002799,0.002589,-0.000243,-0.018976,0.034045,0.987353,39461.336247
-0.002528,0.001524,-0.006634,-0.040216,-0.028852,0.972156,39461.341230
-0.000397,0.002589,0.000822,-0.041406,-0.043134,0.997241,39461.346247
0.001733,0.002589,0.001888,-0.035730,0.003741,1.029193,39461.351223
0.002799,0.000459,0.004018,-0.018701,0.052356,1.008777,39461.356244
0.001733,-0.002737,0.001888,-0.001489,0.043383,0.989093,39461.361230
0.002799,0.004720,-0.003439,-0.014307,-0.017224,0.990924,39461.366260
-0.000397,-0.000607,-0.003439,-0.041681,-0.051648,1.002917,39461.371225
-0.000397,-0.000607,-0.000243,-0.052393,-0.013654,0.994494,39461.376246
0.000668,-0.004868,-0.000243,-0.027399,0.037066,0.986163,39461.381227
0.000668,0.002589,-0.000243,0.009955,0.049334,0.996783,39461.386249
-0.002528,0.002589,0.000822,-0.007074,0.000079,1.007678,39461.391232
0.001733,-0.000607,-0.007700,-0.047357,-0.042676,0.983874,39461.396250
-0.003593,-0.000607,-0.000243,-0.059351,-0.028394,0.982776,39461.401228
0.000668,-0.001672,0.004018,-0.020990,0.026629,1.001452,39461.406228
0.000668,0.003654,0.005083,0.003180,0.051440,1.023791,39461.411253
-0.000397,0.002589,0.005083,-0.012750,0.025256,1.001452,39461.416221
0.000668,-0.002737,-0.009830,-0.044794,-0.032514,0.971240,39461.421252
0.004929,0.000459,-0.000243,-0.043421,-0.041669,0.979480,39461.426229
-0.005724,-0.001672,-0.002373,-0.026575,0.004016,1.021411,39461.431257
0.002799,0.000459,0.000822,-0.013025,0.047778,1.013263,39461.436224
-0.001462,-0.006998,0.004018,-0.015955,0.032306,0.980853,39461.441252
-0.001462,0.003654,0.001888,-0.025202,-0.023450,0.965014,39461.445269
-0.001462,0.003654,0.001888,-0.036829,-0.045972,0.997882,39461.450249
-0.003593,-0.001672,-0.006634,-0.036829,-0.045972,0.997882,39461.451255
-0.001462,-0.000607,0.001888,-0.043421,-0.001752,1.009326,39461.455264
-0.003593,-0.001672,0.002953,-0.028955,0.048602,0.999896,39461.460250
-0.002528,-0.005933,0.004018,0.001715,0.052630,0.984332,39461.465264
-0.000397,0.004720,0.002953,-0.009180,-0.004956,0.996692,39461.470249
-0.001462,0.002589,-0.007700,-0.043970,-0.043042,0.994403,39461.475265
0.000668,0.000459,-0.001308,-0.055231,-0.020520,0.988818,39461.480249
0.001733,0.000459,-0.000243,-0.025293,0.027362,0.984240,39461.485260
0.002799,0.002589,0.005083,0.007391,0.049609,1.001819,39461.490254
-0.002528,0.004720,0.002953,-0.013666,0.009509,1.003558,39461.495265
0.001733,0.003654,-0.001308,-0.045435,-0.041944,0.979846,39461.500253
-0.003593,-0.001672,-0.005569,-0.051294,-0.042585,0.982776,39461.505270
0.000668,0.002589,-0.001308,-0.021173,0.013079,1.019122,39461.510250
-0.002528,0.001524,0.001888,0.006476,0.056109,1.034686,39461.515268
-0.002528,-0.001672,0.002953,-0.007532,0.031115,1.004107,39461.520268
-0.002528,-0.000607,-0.002373,-0.033716,-0.028760,0.971606,39461.525269
0.001733,0.004720,0.000822,-0.040949,-0.045057,0.989001,39461.530265
-0.002528,0.001524,-0.004504,-0.030054,0.004840,1.029010,39461.535238
-0.000397,-0.005933,-0.000243,-0.013208,0.048144,1.011798,39461.540266
0.001733,-0.006998,0.000822,-0.006250,0.040912,0.977099,39461.545235
-0.001462,0.000459,0.006149,-0.021448,-0.018689,0.970141,39461.550281
0.000668,0.004720,0.000822,-0.042871,-0.047895,0.981311,39461.555238
-0.000397,-0.001672,-0.003439,-0.050470,-0.015760,0.993121,39461.560280
-0.001462,-0.002737,0.000822,-0.028772,0.036334,0.980670,39461.565238
-0.000397,-0.002737,-0.000243,0.001806,0.047320,0.990008,39461.570273
0.005994,0.002589,0.004018,-0.008814,0.004565,0.999530,39461.575238
0.002799,0.002589,-0.002373,-0.046625,-0.037458,0.991382,39461.580281
0.001733,0.001524,-0.003439,-0.058801,-0.024823,0.997607,39461.585237
-0.000397,-0.001672,-0.006634,-0.024286,0.027362,1.007403,39461.590277
0.005994,0.004720,0.002953,0.011786,0.055743,1.022693,39461.595243
0.004929,-0.001672,0.002953,-0.006342,0.025622,1.004107,39461.600279
0.003864,-0.001672,0.005083,-0.045709,-0.034436,0.973437,39461.605240
0.001733,-0.001672,-0.000243,-0.049005,-0.048169,0.972339,39461.610281
-0.001462,0.003654,-0.001308,-0.024744,0.003466,1.018756,39461.615236
-0.000397,-0.002737,-0.005569,-0.002405,0.047412,1.022876,39461.620279
0.001733,-0.001672,0.001888,-0.012659,0.030200,0.983966,39461.625238
-0.003593,-0.001672,0.005083,-0.036737,-0.024366,0.955493,39461.630278
-0.002528,0.004720,0.000822,-0.043329,-0.051557,0.981860,39461.635239
-0.000397,0.002589,0.004018,-0.038111,-0.002759,1.012073,39461.640283
-0.001462,0.001524,-0.005569,-0.020899,0.048602,1.010333,39461.645233
-0.001462,0.000459,0.004018,-0.003687,0.055285,0.989459,39461.650276
0.001733,-0.000607,0.000822,-0.008539,0.001544,0.996875,39461.655250
0.001733,0.000459,0.006149,-0.035913,-0.046064,1.008594,39461.660254
0.002799,-0.003803,0.000822,-0.055231,-0.024732,1.004840,39461.665267
0.009190,0.001524,-0.002373,-0.030603,0.033587,0.992480,39461.670247
-0.004658,0.004720,-0.002373,0.010321,0.051074,0.998889,39461.675266
-0.001462,-0.001672,-0.001308,-0.001489,0.007129,0.999621,39461.680249
0.001733,0.000459,0.001888,-0.047907,-0.044965,0.984881,39461.685266
-0.001462,-0.000607,0.000822,-0.060449,-0.042676,0.976275,39461.690248
-0.001462,-0.001672,-0.006634,-0.027490,0.016467,1.004107,39461.695270
-0.001462,0.004720,-0.003439,0.004187,0.055560,1.010608,39461.700254
-0.001462,-0.002737,-0.001308,-0.008264,0.038165,0.992206,39461.705265
-0.000397,-0.001672,0.005083,-0.040491,-0.020612,0.969226,39461.710255
-0.001462,-0.000607,0.001888,-0.044519,-0.042035,0.979205,39461.715262
-0.000397,0.001524,-0.000243,-0.029596,0.007037,1.013629,39461.720253
0.005994,0.003654,-0.002373,-0.013757,0.049243,1.013354,39461.725264
-0.003593,-0.003803,-0.007700,-0.013300,0.046130,0.986072,39461.730250
-0.000397,0.000459,-0.002373,-0.029413,-0.017408,0.969409,39461.735265
-0.002528,0.001524,0.005083,-0.036920,-0.051831,0.990924,39461.740256
0.004929,0.003654,-0.000243,-0.044611,-0.021070,1.009692,39461.745268
-0.001462,0.001524,0.001888,-0.026392,0.039264,1.003192,39461.750250
-0.001462,0.003654,-0.005569,0.002630,0.050891,0.998065,39461.755263
-0.000397,0.004720,-0.003439,-0.002497,0.008685,1.002002,39461.760252
-0.001462,-0.002737,0.000822,-0.037927,-0.042310,1.010425,39461.765263
-0.002528,-0.002737,0.006149,-0.052667,-0.033979,0.994494,39461.770250
0.001733,0.000459,0.002953,0.009131,0.055743,1.007861,39461.775273
0.001733,0.002589,-0.006634,-0.006616,0.024249,1.003924,39461.780268
0.001733,-0.000607,-0.005569,-0.046716,-0.032697,0.973163,39461.785237
-0.001462,-0.003803,0.000822,-0.054590,-0.043409,0.966571,39461.790266
-0.002528,-0.004868,0.004018,-0.028223,0.002642,1.003741,39461.795242
-0.000397,0.000459,0.005083,0.001623,0.047778,1.018481,39461.800283
0.001733,0.002589,-0.000243,-0.006891,0.040820,0.997058,39461.805239
0.000668,0.000459,-0.005569,-0.035547,-0.019971,0.966296,39461.810281
0.000668,-0.000607,-0.002373,-0.046716,-0.047712,0.982867,39461.815239
0.002799,0.000459,0.002953,-0.036188,-0.007337,1.010882,39461.820279
-0.003593,-0.000607,0.001888,-0.020532,0.044848,1.017108,39461.825237
-0.001462,-0.000607,-0.000243,-0.005518,0.050982,0.994494,39461.830278
0.001733,0.003654,-0.004504,-0.015955,-0.000653,0.986346,39461.835240
-0.000397,-0.000607,-0.003439,-0.034448,-0.047895,0.999896,39461.840284
0.001733,-0.000607,0.000822,-0.049555,-0.028943,1.009051,39461.845239
0.000668,-0.000607,0.002953,-0.029596,0.030932,1.000445,39461.850280
0.001733,-0.001672,-0.000243,0.000433,0.047320,0.992114,39461.855245
-0.001462,0.002589,0.002953,-0.005884,0.016742,0.996875,39461.860282
0.001733,0.002589,-0.003439,-0.040308,-0.036084,0.995868,39461.865240
-0.001462,-0.001672,-0.000243,-0.054224,-0.038556,0.984881,39461.870279
0.000668,-0.001672,0.002953,-0.027857,0.011523,0.997973,39461.875239
-0.000397,-0.000607,0.004018,0.004553,0.053271,1.010425,39461.880285
-0.005724,0.001524,0.000822,-0.006433,0.032306,1.007861,39461.885235
-0.000397,0.007915,-0.005569,-0.042230,-0.023908,0.973346,39461.890278
-0.000397,-0.000607,-0.002373,-0.050470,-0.045423,0.979114,39461.895243
-0.000397,-0.001672,-0.000243,-0.030237,-0.003858,1.011889,39461.900280
0.001733,0.000459,0.005083,-0.006708,0.047870,1.033496,39461.905246
0.001733,0.002589,0.000822,-0.006250,0.050067,0.999713,39461.910250
0.005994,-0.002737,-0.003439,-0.026941,-0.005506,0.974994,39461.915267
-0.000397,0.001524,0.000822,-0.035089,-0.051374,0.981402,39461.920254
-0.001462,-0.000607,-0.000243,-0.040857,-0.020795,1.018481,39461.925267
0.000668,-0.002737,0.001888,-0.026117,0.040637,1.005939,39461.930252
-0.004658,-0.002737,0.008279,-0.008631,0.051898,0.982684,39461.935279
-0.001462,-0.002737,-0.001308,-0.014032,0.010699,0.980304,39461.940255
0.001733,0.002589,-0.006634,-0.033991,-0.046521,0.987262,39461.945266
0.003864,0.000459,-0.002373,-0.049555,-0.029126,0.986987,39461.950254
-0.002528,-0.003803,0.002953,-0.035822,0.018298,0.991931,39461.955261
0.004929,-0.000607,0.005083,0.002447,0.057299,0.997973,39461.960252
0.000668,0.003654,0.005083,-0.001215,0.031024,1.005939,39461.965267
0.000668,0.001524,-0.005569,-0.036829,-0.024274,0.985888,39461.970250
-0.000397,0.004720,-0.006634,-0.060907,-0.044049,0.983783,39461.975259
0.000668,-0.002737,-0.002373,-0.033808,-0.000104,1.004382,39461.980252
0.000668,0.001524,0.001888,0.001623,0.047137,1.022967,39461.985267
0.000668,0.006850,0.002953,-0.001581,0.037158,1.014544,39461.990247
0.009190,0.000459,-0.002373,-0.033899,-0.016126,0.974994,39461.995270
0.003864,-0.000607,0.000822,-0.046259,-0.057416,0.972613,39462.000255
-0.004658,0.002589,-0.007700,-0.027857,-0.014753,1.011798,39462.005272
0.000668,-0.000607,0.004018,-0.013391,0.042651,1.021502,39462.010255
0.000668,-0.005933,0.004018,-0.011286,0.052813,0.989276,39462.015263
-0.000397,-0.004868,0.002953,-0.022272,0.004290,0.976092,39462.020250
0.001733,0.004720,-0.000243,-0.037561,-0.044782,0.990283,39462.025271
0.005994,0.000459,-0.005569,-0.042505,-0.026197,1.010974,39462.030251
0.002799,0.000459,-0.003439,-0.031153,0.030749,1.000079,39462.035272
-0.002528,-0.001672,0.005083,-0.003320,0.052905,0.989642,39462.040265
-0.002528,-0.000607,0.002953,-0.000025,0.021502,0.985064,39462.045240
0.001733,0.000459,-0.002373,-0.037653,-0.032697,0.989642,39462.050292
0.000668,0.000459,-0.003439,-0.056146,-0.036634,0.979205,39462.055242
0.005994,-0.002737,-0.004504,-0.039118,0.008776,0.986712,39462.060279
-0.001462,-0.000607,0.001888,-0.000208,0.050708,1.005115,39462.064256
-0.001462,-0.000607,0.001888,0.002081,0.037524,1.006671,39462.069233
0.000668,-0.000607,0.002953,0.002081,0.037524,1.006671,39462.070287
0.000668,0.000459,0.002953,-0.037927,-0.020154,0.985248,39462.074259
0.001733,0.001524,-0.001308,-0.056970,-0.047986,0.974444,39462.079242
0.002799,-0.001672,-0.004504,-0.039850,-0.007245,1.002276,39462.084264
-0.003593,0.002589,0.001888,-0.002405,0.046405,1.025256,39462.089235
0.003864,-0.003803,0.002953,-0.003137,0.051074,1.003100,39462.094261
0.002799,-0.002737,0.002953,-0.030969,-0.003583,0.978839,39462.099235
0.000668,0.001524,0.000822,-0.038843,-0.046338,0.977740,39462.104263
0.003864,0.004720,-0.000243,-0.035639,-0.020063,1.013354,39462.109235
-0.000397,0.000459,-0.002373,-0.025934,0.036792,1.016650,39462.114261
0.000668,-0.002737,0.000822,-0.008814,0.050799,0.991290,39462.119242
0.001733,0.001524,0.006149,-0.011652,0.009784,0.979754,39462.124260
-0.001462,0.001524,0.001888,-0.036188,-0.041394,0.993762,39462.129242
-0.000397,0.003654,-0.003439,-0.048456,-0.036725,1.000079,39462.134260
0.002799,-0.000607,-0.005569,-0.034448,0.018390,1.003192,39462.139236
-0.000397,-0.002737,0.004018,0.004919,0.056292,1.000171,39462.144259
-0.003593,-0.002737,0.004018,0.005011,0.027545,1.003467,39462.149241
0.000668,-0.003803,0.000822,-0.030512,-0.024823,0.987353,39462.154263
-0.000397,-0.001672,0.004018,-0.056787,-0.045789,0.974078,39462.159239
-0.003593,0.001524,-0.005569,-0.039026,0.004840,0.985431,39462.164264
-0.004658,-0.000607,-0.003439,-0.002497,0.045214,1.006946,39462.169262
0.001733,-0.001672,-0.003439,-0.004785,0.049701,1.004291,39462.174237
-0.001462,0.000459,0.006149,-0.039026,-0.010266,0.977008,39462.179267
0.001733,0.000459,0.001888,-0.047266,-0.050824,0.966937,39462.184234
0.001733,0.003654,-0.003439,-0.034265,-0.013471,0.999988,39462.189263
0.000668,0.006850,-0.005569,-0.012750,0.039996,1.012897,39462.194233
-0.001462,-0.000607,-0.001308,-0.006159,0.055651,0.986438,39462.199265
-0.002528,-0.001672,0.002953,-0.023096,0.005297,0.968860,39462.204233
0.001733,0.001524,0.001888,-0.037744,-0.044233,0.987170,39462.209271
-0.002528,0.005785,0.001888,-0.035455,-0.030591,1.011706,39462.214233
0.001733,0.002589,-0.006634,-0.031061,0.028369,1.020862,39462.219266
-0.000397,-0.001672,-0.003439,-0.011286,0.052081,0.991748,39462.224233
0.000668,-0.001672,-0.002373,-0.011011,0.017291,0.991565,39462.229261
0.001733,0.003654,0.007214,-0.029047,-0.031598,0.992938,39462.234233
0.001733,-0.002737,0.004018,-0.048273,-0.038099,1.000171,39462.239262
-0.001462,-0.000607,-0.002373,-0.034448,0.010241,0.999713,39462.244232
-0.004658,-0.001672,-0.005569,0.002264,0.044940,0.999530,39462.249264
0.004929,0.003654,0.000822,0.007025,0.035876,1.010242,39462.254235
0.002799,-0.003803,0.004018,-0.030237,-0.022535,0.992572,39462.259265
-0.003593,-0.004868,0.005083,-0.057428,-0.051648,0.973895,39462.264240
-0.003593,0.002589,-0.001308,-0.041406,-0.013562,0.990466,39462.269262
0.003864,0.001524,-0.004504,-0.006067,0.043292,1.015277,39462.274233
0.000668,0.000459,-0.008765,-0.001398,0.049060,1.013812,39462.279265
-0.000397,-0.004868,0.001888,-0.026026,-0.001752,0.974811,39462.284237
-0.000397,0.000459,0.009344,-0.046442,-0.049085,0.979022,39462.289264
0.004929,-0.000607,-0.000243,-0.039758,-0.018415,1.006671,39462.294262
0.000668,0.002589,-0.004504,-0.023828,0.032031,1.011889,39462.299249
-0.001462,-0.000607,-0.003439,-0.005060,0.054004,0.997516,39462.304262
0.004929,-0.002737,-0.005569,-0.012567,0.011706,0.974902,39462.309244
-0.002528,-0.000607,0.006149,-0.038660,-0.044141,0.982318,39462.314264
-0.001462,-0.003803,0.001888,-0.049097,-0.040296,0.999804,39462.319236
0.004929,-0.000607,-0.001308,-0.040308,0.013903,1.000628,39462.324258
-0.001462,0.003654,-0.001308,-0.008722,0.051257,0.989825,39462.329244
-0.002528,0.000459,-0.004504,-0.000208,0.033587,0.991107,39462.334263
-0.001462,-0.002737,0.000822,-0.055231,-0.037366,0.983325,39462.339239
0.003864,-0.003803,0.010410,-0.043329,0.000171,0.990741,39462.344265
0.003864,0.000459,0.005083,-0.003046,0.046038,1.015368,39462.349240
0.001733,0.002589,-0.000243,0.004645,0.045123,1.016192,39462.354261
-0.000397,0.002589,-0.002373,-0.033258,-0.007245,0.990100,39462.359246
0.001733,-0.000607,0.000822,-0.052851,-0.050092,0.972979,39462.364265
0.001733,-0.003803,-0.001308,-0.041590,-0.025098,1.006854,39462.369238
-0.001462,0.002589,0.002953,-0.005976,0.037799,1.022143,39462.374264
-0.001462,0.005785,-0.002373,0.001349,0.050067,1.008594,39462.379241
0.003864,0.000459,-0.007700,-0.022089,0.004748,0.984057,39462.384256
0.001733,-0.002737,-0.006634,-0.039118,-0.043409,0.977557,39462.389237
-0.000397,-0.000607,0.002953,-0.036279,-0.031873,1.004382,39462.394261
-0.001462,-0.000607,0.004018,-0.026300,0.021319,1.019855,39462.399237
-0.000397,0.000459,0.004018,-0.004602,0.053820,1.001819,39462.404268
0.001733,-0.001672,-0.002373,-0.010004,0.023700,0.987628,39462.409244
0.001733,0.002589,-0.007700,-0.028955,-0.033612,0.989001,39462.414239
-0.006789,-0.003803,-0.001308,-0.052118,-0.041120,0.997149,39462.419266
-0.000397,-0.001672,0.004018,-0.044794,0.010058,0.990741,39462.424233
0.000668,-0.000607,0.001888,-0.003870,0.050525,0.994037,39462.429268
-0.001462,0.000459,-0.001308,0.007666,0.038440,0.996783,39462.434239
-0.005724,0.003654,-0.004504,-0.028314,-0.017499,0.996783,39462.439265
-0.000397,-0.000607,-0.003439,-0.058161,-0.046979,0.970050,39462.444235
-0.002528,-0.001672,-0.001308,-0.050836,-0.012098,0.990008,39462.449267
0.000668,-0.001672,0.001888,-0.014032,0.039538,1.012713,39462.454238
0.001733,0.001524,0.006149,0.001806,0.047503,1.012347,39462.459270
-0.001462,0.002589,-0.006634,-0.030969,0.000720,0.984698,39462.464234
-0.000397,0.002589,-0.005569,-0.049097,-0.043500,0.975543,39462.469273
0.002799,-0.000607,0.001888,-0.037561,-0.027661,1.006946,39462.474232
-0.000397,-0.000607,-0.001308,-0.017420,0.023974,1.025531,39462.479264
0.004929,0.000459,0.006149,0.000250,0.054095,1.003924,39462.484232
0.001733,-0.004868,-0.003439,-0.016046,0.014544,0.980945,39462.489266
-0.001462,0.002589,-0.003439,-0.036737,-0.042310,0.981952,39462.494239
-0.002528,0.002589,0.000822,-0.045343,-0.043500,1.002734,39462.499268
0.003864,-0.001672,0.002953,-0.036096,0.011981,1.008777,39462.504234
0.003864,-0.002737,0.002953,-0.008356,0.054278,0.998248,39462.509270
-0.000397,-0.000607,-0.001308,0.005011,0.035693,0.993121,39462.514230
-0.000397,0.001524,-0.003439,-0.022180,-0.024915,0.991748,39462.519269
-0.004658,0.000459,-0.005569,-0.049738,-0.045972,0.986346,39462.524230
-0.001462,-0.002737,0.000822,-0.044428,-0.004316,0.995410,39462.529266
0.001733,-0.004868,-0.002373,-0.008997,0.047137,0.993579,39462.534235
0.000668,-0.001672,0.007214,0.005652,0.045581,1.004931,39462.539248
-0.001462,0.000459,-0.001308,-0.027765,-0.007154,0.989825,39462.544263
0.004929,0.000459,-0.006634,-0.053949,-0.046888,0.968951,39462.549245
-0.004658,0.001524,-0.002373,-0.040582,-0.021985,0.991015,39462.554260
-0.000397,0.000459,0.006149,-0.012842,0.029376,1.016833,39462.559240
0.002799,-0.001672,0.002953,-0.004144,0.056018,1.002917,39462.564260
-0.000397,0.002589,0.000822,-0.025659,0.012530,0.981677,39462.569239
0.000668,0.000459,-0.001308,-0.043695,-0.039655,0.975818,39462.574265
0.000668,0.003654,-0.004504,-0.039667,-0.032880,1.005755,39462.579241
-0.000397,0.000459,-0.004504,-0.024469,0.020312,1.021686,39462.584261
0.005994,0.000459,0.006149,-0.009729,0.056659,1.008685,39462.589243
0.004929,-0.001672,0.002953,-0.014032,0.024798,0.983325,39462.594267
0.003864,-0.001672,0.002953,-0.029962,-0.036908,0.992114,39462.599238
0.001733,0.002589,-0.003439,-0.042780,-0.048444,1.003192,39462.604262
0.000668,0.000459,-0.003439,-0.038660,0.001635,1.001636,39462.609238
-0.000397,-0.002737,0.002953,-0.009088,0.045672,0.996692,39462.614263
-0.002528,0.000459,0.004018,0.005560,0.036425,0.995501,39462.619239
-0.001462,-0.001672,-0.000243,-0.024927,-0.015302,0.995685,39462.624265
-0.001462,0.000459,-0.001308,-0.053308,-0.048078,0.982501,39462.629249
-0.002528,0.001524,-0.005569,-0.044794,-0.019513,0.993762,39462.634261
-0.000397,-0.003803,-0.002373,-0.009912,0.036883,1.005939,39462.639238
0.001733,-0.003803,0.006149,0.008032,0.052264,1.007586,39462.644262
0.001733,-0.001672,0.006149,-0.022821,0.007769,0.978564,39462.649242
0.000668,-0.003803,-0.001308,-0.051569,-0.043409,0.968860,39462.654272
-0.001462,0.001524,-0.002373,-0.045526,-0.025464,0.983600,39462.659267
-0.000397,-0.000607,-0.005569,-0.021448,0.023974,1.015368,39462.664238
-0.003593,0.003654,-0.001308,-0.003870,0.059314,1.006305,39462.669263
0.001733,-0.002737,0.004018,-0.019159,0.023974,0.975360,39462.673273
0.001733,-0.002737,0.004018,-0.037287,-0.033063,0.966296,39462.678233
-0.000397,0.001524,0.006149,-0.037287,-0.033063,0.966296,39462.679273
0.001733,0.004720,-0.007700,-0.046167,-0.040662,0.998431,39462.683269
0.000668,0.001524,0.000822,-0.037927,0.009509,1.012256,39462.688228
0.004929,0.001524,-0.001308,-0.011835,0.052447,0.997699,39462.693274
0.000668,-0.000607,0.001888,-0.003137,0.033953,0.987536,39462.698227
0.002799,0.002589,0.005083,-0.023737,-0.024366,0.998889,39462.703268
0.001733,0.002589,-0.000243,-0.040216,-0.044690,0.999255,39462.708234
0.000668,-0.001672,-0.003439,-0.044611,-0.006513,1.004016,39462.713268
0.005994,0.001524,-0.001308,-0.010919,0.040271,1.008136,39462.718229
0.001733,-0.000607,0.000822,0.011420,0.041095,1.014361,39462.723270
0.002799,-0.002737,-0.003439,-0.019342,-0.008802,0.997516,39462.728224
-0.000397,0.000459,0.002953,-0.048456,-0.051648,0.983325,39462.733268
0.000668,0.000459,-0.001308,-0.049372,-0.027204,0.986255,39462.738229
-0.001462,0.000459,-0.004504,-0.016779,0.027636,1.015002,39462.743270
-0.003593,-0.002737,-0.000243,0.008124,0.053546,1.004291,39462.748228
-0.002528,-0.008064,0.007214,-0.016504,0.008593,0.983874,39462.753267
0.001733,-0.002737,0.004018,-0.043604,-0.044141,0.966205,39462.758233
-0.005724,-0.002737,0.000822,-0.043878,-0.040113,0.987353,39462.763274
-0.001462,0.001524,-0.002373,-0.027948,0.022967,1.006030,39462.768231
-0.000397,-0.002737,-0.003439,-0.013757,0.055468,0.996509,39462.773264
0.000668,-0.001672,0.000822,-0.011926,0.034594,0.979937,39462.778230
-0.001462,-0.002737,0.002953,-0.031244,-0.030683,0.982776,39462.783244
-0.002528,-0.000607,-0.002373,-0.045160,-0.039838,0.992663,39462.788261
0.001733,0.002589,0.001888,-0.045160,0.001178,1.012713,39462.793245
0.000668,0.002589,-0.004504,-0.013574,0.045214,0.993030,39462.798254
0.000668,0.000459,-0.004504,0.003180,0.044757,0.990008,39462.803241
0.000668,0.000459,0.006149,-0.022547,-0.008252,0.988727,39462.808258
0.002799,0.000459,0.000822,-0.057153,-0.047895,0.984149,39462.813245
0.007060,0.003654,0.004018,-0.054041,-0.019513,0.992480,39462.818250
0.001733,0.003654,-0.004504,-0.015863,0.032580,1.010242,39462.823244
0.002799,0.003654,-0.003439,0.012976,0.046496,1.017840,39462.828258
0.005994,0.000459,0.001888,-0.015131,0.007220,0.992755,39462.833243
0.003864,-0.000607,0.008279,-0.050470,-0.043775,0.972339,39462.838256
0.001733,0.000459,0.001888,-0.045618,-0.035169,0.984790,39462.843243
-0.003593,-0.001672,-0.002373,-0.018244,0.022693,1.015368,39462.848259
0.001733,0.004720,-0.004504,-0.000025,0.051165,1.022418,39462.853244
-0.001462,-0.001672,-0.000243,-0.013666,0.022418,0.988360,39462.858259
0.000668,-0.001672,0.004018,-0.038568,-0.036634,0.976825,39462.863245
0.000668,-0.002737,0.006149,-0.043695,-0.045697,0.996234,39462.868263
0.001733,0.000459,-0.001308,-0.033350,0.003283,1.013446,39462.873243
-0.002528,0.000459,-0.002373,-0.011286,0.054461,1.005023,39462.878259
-0.003593,-0.000607,-0.000243,-0.005243,0.043109,0.989001,39462.883243
-0.001462,0.000459,-0.001308,-0.024195,-0.016675,0.990649,39462.888256
0.005994,-0.002737,0.006149,-0.042688,-0.044049,0.992572,39462.893244
0.002799,-0.000607,0.006149,-0.019434,0.040637,0.992938,39462.898252
0.002799,-0.001672,-0.003439,0.000799,0.042651,0.985797,39462.903242
0.000668,0.002589,-0.002373,-0.022547,-0.001020,0.988727,39462.908230
-0.001462,0.001524,-0.001308,-0.056421,-0.045606,0.982043,39462.913268
0.003864,0.000459,0.000822,-0.050928,-0.021527,0.984790,39462.918230
0.004929,-0.002737,0.005083,-0.016504,0.031482,1.007312,39462.923267
0.000668,0.005785,0.001888,0.007025,0.059497,1.008410,39462.928236
0.003864,0.004720,-0.002373,-0.015314,0.023059,0.994220,39462.933273
-0.004658,0.001524,-0.003439,-0.044061,-0.036084,0.968036,39462.938233
0.001733,0.002589,0.002953,-0.048456,-0.038556,0.998156,39462.943274
0.001733,0.000459,-0.000243,-0.025476,0.011981,1.025714,39462.948233
0.003864,0.000459,0.005083,0.000159,0.052264,1.019305,39462.953267
0.000668,0.003654,-0.000243,-0.004877,0.025988,0.992114,39462.958236
-0.000397,-0.001672,-0.006634,-0.030329,-0.032972,0.984424,39462.963272
0.001733,-0.002737,-0.002373,-0.040491,-0.053022,0.993854,39462.968234
-0.001462,-0.001672,0.005083,-0.040125,-0.007520,1.008777,39462.973269
0.001733,0.000459,0.006149,-0.014765,0.046679,1.000628,39462.978230
-0.002528,-0.001672,0.000822,0.005011,0.042376,0.998889,39462.983271
0.000668,-0.001672,-0.001308,-0.020166,-0.008619,0.989551,39462.988233
0.000668,-0.000607,-0.002373,-0.048456,-0.048261,0.989367,39462.993272
-0.003593,-0.000607,0.001888,-0.053766,-0.013929,0.985339,39462.998234
-0.000397,-0.004868,0.004018,-0.024927,0.034594,1.003558,39463.003274
-0.001462,0.000459,0.001888,0.006384,0.052905,1.003558,39463.008233
-0.001462,0.002589,-0.003439,-0.011926,0.012896,0.997149,39463.013276
0.002799,-0.003803,-0.004504,-0.046167,-0.039563,0.979297,39463.018234
0.001733,0.002589,-0.002373,-0.053217,-0.039289,0.988177,39463.023267
0.002799,-0.000607,0.005083,-0.023645,0.016925,1.005481,39463.028232
-0.001462,0.000459,0.000822,0.000525,0.055926,1.010699,39463.033271
0.002799,-0.002737,0.001888,-0.015772,0.024066,0.984973,39463.038229
0.000668,0.002589,-0.003439,-0.045160,-0.031324,0.974444,39463.043245
-0.000397,0.001524,0.000822,-0.042780,-0.047254,0.993762,39463.048265
-0.002528,0.002589,0.000822,-0.028040,0.003283,1.025714,39463.053247
-0.001462,0.000459,0.005083,-0.011286,0.050250,1.017657,39463.058260
0.007060,-0.000607,0.002953,-0.005609,0.037707,0.989825,39463.063248
0.001733,0.004720,-0.003439,-0.024103,-0.013196,0.987079,39463.068260
0.005994,0.005785,-0.002373,-0.045801,-0.051282,0.991107,39463.073244
0.003864,-0.000607,-0.002373,-0.041864,-0.007886,0.999530,39463.078258
0.001733,-0.005933,0.004018,-0.017877,0.035052,1.000812,39463.083244
0.001733,-0.000607,0.002953,0.002447,0.044665,0.995501,39463.088257
0.001733,0.001524,0.002953,-0.019617,0.000354,0.998889,39463.093243
0.000668,0.001524,-0.000243,-0.047998,-0.042585,0.983050,39463.098267
-0.000397,0.002589,-0.004504,-0.051569,-0.029950,0.990741,39463.103241
-0.000397,-0.005933,-0.002373,-0.025018,0.025073,1.005939,39463.108258
0.001733,0.001524,0.001888,0.006567,0.055285,1.013263,39463.113245
-0.001462,-0.000607,0.004018,-0.010187,0.023974,0.998980,39463.118266
0.003864,0.001524,-0.001308,-0.039667,-0.037641,0.969500,39463.123242
0.000668,-0.001672,-0.004504,-0.050012,-0.043592,0.985980,39463.128259
-0.003593,0.001524,-0.003439,-0.029596,0.011706,1.009326,39463.133247
0.002799,0.000459,0.006149,-0.004694,0.054370,1.008410,39463.138256
0.000668,-0.000607,0.007214,-0.014398,0.034137,0.987445,39463.143246
0.002799,-0.001672,-0.001308,-0.039667,-0.023908,0.971972,39463.148257
0.005994,0.002589,-0.003439,-0.044519,-0.047071,0.987445,39463.153251
0.000668,-0.000607,-0.006634,-0.039118,-0.004865,1.012439,39463.158257
0.002799,0.007915,0.002953,-0.021906,0.047778,1.012805,39463.163271
-0.001462,-0.003803,0.001888,-0.000208,0.046496,0.993304,39463.168229
-0.000397,0.000459,0.004018,-0.016687,-0.002027,0.988818,39463.173266
0.001733,0.003654,-0.004504,-0.040582,-0.045331,0.997882,39463.178237
-0.000397,0.001524,-0.002373,-0.048914,-0.021985,1.000079,39463.183268
-0.001462,-0.003803,-0.000243,-0.023737,0.026904,1.005389,39463.188236
0.000668,0.002589,0.001888,0.009772,0.049151,1.009326,39463.193270
0.002799,-0.002737,0.008279,-0.009180,0.010699,1.005572,39463.198237
0.001733,-0.002737,-0.002373,-0.043695,-0.043225,0.985156,39463.203272
-0.000397,-0.001672,-0.003439,-0.051843,-0.041944,0.986255,39463.208229
-0.000397,-0.002737,-0.004504,-0.025110,0.018939,1.008227,39463.213284
-0.000397,0.001524,-0.002373,0.004828,0.052813,1.008960,39463.218233
0.000668,-0.001672,0.007214,-0.010919,0.028094,0.988360,39463.223276
0.003864,0.001524,0.006149,-0.043695,-0.030957,0.968219,39463.228237
-0.001462,-0.001672,-0.003439,-0.050195,-0.046155,0.983142,39463.233276
0.001733,0.002589,-0.004504,-0.030054,0.004565,1.016742,39463.238232
0.001733,0.000459,-0.003439,-0.005518,0.057757,1.008777,39463.243273
-0.001462,-0.003803,-0.000243,-0.006159,0.045031,0.991198,39463.248232
-0.000397,0.001524,0.005083,-0.024927,-0.011640,0.974444,39463.253272
0.001733,-0.000607,0.000822,-0.045892,-0.042493,0.984515,39463.258234
0.000668,0.004720,-0.002373,-0.047907,-0.013013,0.997790,39463.263271
0.000668,0.002589,-0.003439,-0.026300,0.040271,1.006305,39463.268232
-0.002528,-0.001672,-0.001308,0.004919,0.052447,1.000995,39463.273269
0.000668,-0.000607,0.001888,-0.006616,0.005023,1.002002,39463.277277
0.001733,0.001524,0.004018,-0.042597,-0.042310,0.989825,39463.282258
0.001733,0.001524,0.004018,-0.056421,-0.036084,0.994128,39463.287246
0.007060,0.004720,-0.002373,-0.056421,-0.036084,0.994128,39463.288266
0.001733,-0.005933,-0.005569,-0.028589,0.019580,0.999438,39463.292258
0.001733,0.002589,-0.000243,0.007208,0.046862,1.006213,39463.297247
0.003864,-0.002737,0.001888,-0.007349,0.024340,0.999255,39463.302265
-0.001462,-0.001672,0.007214,-0.043146,-0.032697,0.976275,39463.307247
-0.007854,-0.000607,0.002953,-0.049280,-0.035443,0.983050,39463.312272
0.000668,0.000459,-0.000243,-0.029871,0.009784,1.009967,39463.317246
0.001733,0.000459,-0.008765,-0.000757,0.050158,1.008227,39463.322263
-0.002528,0.000459,-0.002373,-0.010278,0.037799,0.984607,39463.327245
0.001733,-0.001672,0.005083,-0.038751,-0.018964,0.968768,39463.332261
0.001733,-0.002737,0.006149,-0.049005,-0.053022,0.988635,39463.337250
-0.000397,-0.001672,0.004018,-0.038019,-0.009900,1.010425,39463.342266
-0.002528,-0.002737,-0.003439,-0.014215,0.050525,1.014819,39463.347247
-0.003593,0.001524,-0.002373,0.001623,0.056567,0.997699,39463.352263
-0.000397,0.000459,0.001888,-0.017877,0.000903,0.985614,39463.357243
0.005994,-0.000607,0.004018,-0.042780,-0.050733,0.983600,39463.362266
-0.001462,0.001524,0.000822,-0.049463,-0.029035,0.990558,39463.367249
-0.001462,0.000459,-0.001308,-0.031244,0.023059,0.991015,39463.372269
0.000668,0.000459,-0.006634,0.001074,0.051165,0.996783,39463.377250
0.001733,0.003654,0.000822,-0.009088,0.016650,1.003924,39463.382262
-0.000397,-0.004868,0.005083,-0.035730,-0.039655,0.986987,39463.387245
0.001733,-0.000607,0.007214,-0.050012,-0.036451,0.988910,39463.392274
0.000668,0.000459,-0.003439,-0.033716,0.013537,1.008960,39463.397246
-0.001462,0.002589,0.000822,-0.001306,0.056750,1.006213,39463.402264
-0.001462,-0.003803,-0.003439,-0.004053,0.036700,0.989184,39463.407276
-0.000397,-0.003803,0.007214,-0.036646,-0.025281,0.976458,39463.412237
0.002799,-0.005933,0.007214,-0.046808,-0.046704,0.985705,39463.417275
-0.001462,0.001524,0.002953,-0.033258,-0.005963,1.016192,39463.422240
0.002799,0.001524,-0.004504,-0.009638,0.048419,1.011065,39463.427283
-0.000397,0.002589,-0.001308,-0.004328,0.045214,0.992022,39463.432234
-0.000397,-0.003803,-0.001308,-0.024835,-0.008435,0.972979,39463.437277
-0.000397,-0.000607,0.001888,-0.041132,-0.049451,0.987811,39463.442238
-0.002528,0.000459,0.004018,-0.040491,-0.015393,1.001727,39463.447273
0.000668,0.001524,-0.002373,-0.024652,0.037799,1.008136,39463.452239
-0.002528,0.002589,-0.005569,-0.003687,0.053180,0.995959,39463.457270
0.001733,0.000459,-0.002373,-0.013483,0.006671,0.996234,39463.462238
0.000668,-0.001672,0.000822,-0.055597,-0.039106,0.991382,39463.467275
0.001733,-0.002737,0.005083,-0.035730,0.019854,1.000537,39463.472240
-0.002528,0.002589,-0.000243,0.005469,0.053088,1.006854,39463.477273
-0.005724,0.000459,-0.001308,0.001257,0.029651,0.999713,39463.482236
-0.000397,0.004720,-0.006634,-0.036096,-0.025464,0.981952,39463.487274
0.001733,-0.000607,-0.000243,-0.053034,-0.041394,0.976458,39463.492238
-0.001462,-0.002737,0.004018,-0.031976,0.001086,1.009418,39463.497280
0.001733,0.003654,0.005083,-0.002497,0.051165,1.018023,39463.502237
0.000668,-0.000607,-0.002373,-0.007166,0.039630,0.994311,39463.507283
0.001733,0.000459,-0.003439,-0.030603,-0.014569,0.972064,39463.512234
-0.001462,0.002589,0.002953,-0.045343,-0.048810,0.988086,39463.517270
-0.003593,0.000459,-0.002373,-0.036279,-0.010541,1.012713,39463.522237
0.003864,-0.003803,0.006149,-0.013117,0.039813,1.011157,39463.527276
0.002799,0.002589,0.000822,-0.002130,0.051074,0.986621,39463.532264
-0.001462,0.000459,-0.000243,-0.020075,0.000628,0.977740,39463.537245
-0.003593,0.004720,-0.006634,-0.043787,-0.041394,0.988177,39463.542266
-0.001462,-0.000607,-0.001308,-0.049372,-0.024457,1.002276,39463.547245
-0.001462,0.001524,0.006149,-0.031885,0.027270,1.001636,39463.552267
0.002799,-0.001672,0.000822,-0.004877,0.055743,1.001086,39463.557244
0.000668,0.002589,-0.001308,-0.008356,0.020404,0.997333,39463.562267
-0.001462,0.000459,-0.005569,-0.035913,-0.041028,0.989917,39463.567245
0.000668,0.004720,0.000822,-0.051935,-0.040113,0.985339,39463.572265
-0.000397,-0.003803,-0.000243,-0.034174,0.010791,1.007678,39463.577248
-0.002528,0.000459,0.005083,0.003454,0.053363,1.016833,39463.582268
0.005994,0.000459,0.002953,0.002905,0.036425,1.004382,39463.587251
-0.001462,0.000459,-0.004504,-0.037195,-0.020887,0.981677,39463.592265
0.000668,0.000459,-0.002373,-0.052759,-0.052655,0.982501,39463.597248
-0.000397,0.000459,-0.003439,-0.037927,-0.009900,1.006763,39463.602267
0.002799,-0.002737,0.006149,-0.011926,0.038348,1.018115,39463.607252
0.002799,-0.004868,0.000822,-0.002954,0.047137,0.996600,39463.612269
0.000668,0.000459,0.004018,-0.023187,-0.003949,0.984240,39463.617250
-0.000397,-0.000607,-0.004504,-0.041956,-0.047162,0.985431,39463.622275
-0.001462,0.003654,-0.006634,-0.041590,-0.022351,1.007586,39463.627247
-0.000397,-0.002737,0.004018,-0.022730,0.034228,1.004016,39463.632265
0.001733,0.000459,0.001888,-0.006067,0.056933,0.986529,39463.637251
-0.000397,-0.000607,0.000822,-0.015039,0.011706,0.986804,39463.642272
0.000668,0.000459,-0.002373,-0.036920,-0.040479,0.990283,39463.647247
-0.003593,-0.001672,-0.005569,-0.052576,-0.037000,0.997973,39463.652266
-0.005724,0.001524,-0.004504,-0.033258,0.016558,1.000812,39463.657278
0.001733,-0.004868,0.007214,0.001532,0.055377,1.003375,39463.662237
0.001733,-0.000607,0.004018,-0.001856,0.030749,0.999896,39463.667284
-0.000397,-0.000607,0.000822,-0.036646,-0.030866,0.988818,39463.672235
0.001733,0.001524,-0.004504,-0.049372,-0.042127,0.987079,39463.677274
0.001733,0.000459,-0.001308,-0.033991,0.000354,1.003375,39463.682244
0.000668,-0.001672,0.002953,-0.007898,0.046313,1.015368,39463.687271
-0.001462,-0.000607,0.005083,-0.004968,0.039264,1.008227,39463.692244
-0.001462,0.003654,-0.001308,-0.024744,-0.013013,0.975177,39463.697275
-0.002528,-0.001672,0.001888,-0.045892,-0.055402,0.982959,39463.702237
-0.003593,0.002589,-0.001308,-0.039667,-0.019239,1.008594,39463.707284
0.002799,-0.003803,-0.001308,-0.018427,0.037799,1.017840,39463.712238
-0.000397,0.000459,0.009344,-0.002771,0.053912,0.998156,39463.717274
-0.001462,-0.000607,0.000822,-0.015222,0.006396,0.982501,39463.722245
-0.000397,0.003654,-0.002373,-0.034174,-0.042127,0.991107,39463.727268
-0.001462,0.000459,-0.000243,-0.047266,-0.026654,1.001910,39463.732239
-0.000397,-0.003803,-0.002373,-0.034998,0.023608,0.996966,39463.737281
-0.001462,-0.003803,0.002953,-0.006342,0.053637,0.987719,39463.742245
-0.002528,0.003654,0.001888,-0.007349,0.022235,0.989825,39463.747277
-0.002528,-0.000607,0.002953,-0.034906,-0.034711,0.988635,39463.752242
0.002799,0.004720,-0.001308,-0.051752,-0.038648,0.986438,39463.757286
0.000668,-0.000607,-0.006634,-0.034082,0.008227,0.999896,39463.762240
0.004929,0.001524,-0.004504,-0.002405,0.055743,1.010333,39463.767277
0.004929,-0.000607,0.001888,0.001532,0.040271,1.008044,39463.772238
0.002799,-0.001672,0.004018,-0.031244,-0.020978,0.978930,39463.777274
0.002799,0.001524,-0.001308,-0.052851,-0.053662,0.984790,39463.782251
0.002799,-0.000607,-0.002373,-0.042322,-0.013654,1.009509,39463.787280
-0.002528,-0.000607,-0.000243,-0.014765,0.041552,1.019671,39463.792266
0.002799,-0.000607,-0.000243,-0.003687,0.046954,0.999255,39463.797252
-0.002528,-0.000607,0.008279,-0.026666,-0.004865,0.978564,39463.802278
0.000668,0.000459,-0.001308,-0.037470,-0.049817,0.980761,39463.807252
-0.002528,0.001524,-0.001308,-0.038568,-0.029309,1.010058,39463.812265
0.001733,-0.001672,-0.006634,-0.021173,0.038714,1.008594,39463.817251
-0.000397,0.000459,0.001888,-0.002497,0.054278,0.990649,39463.822271
-0.003593,-0.000607,0.002953,-0.013117,0.018023,0.982501,39463.827252
0.000668,0.002589,0.009344,-0.038934,-0.038099,0.990283,39463.832269
0.005994,0.002589,-0.001308,-0.046167,-0.038282,0.994861,39463.837250
-0.001462,-0.000607,-0.004504,-0.031519,0.012896,0.998980,39463.842263
-0.001462,0.000459,-0.001308,-0.005335,0.052996,0.998431,39463.847248
0.004929,-0.001672,0.004018,-0.002497,0.034869,0.997516,39463.852263
0.001733,-0.002737,-0.002373,-0.032984,-0.028211,0.980761,39463.857253
0.002799,0.001524,-0.001308,-0.056696,-0.051557,0.979388,39463.862277
0.000668,0.002589,0.001888,-0.040216,-0.003858,0.994952,39463.867253
0.000668,0.003654,-0.004504,-0.003961,0.049243,1.015368,39463.872267
0.004929,-0.003803,-0.001308,0.004828,0.048785,1.004199,39463.877254
-0.000397,-0.001672,0.005083,-0.029779,-0.010816,0.983325,39463.882264
-0.001462,-0.000607,0.006149,-0.047632,-0.051923,0.981311,39463.886270
-0.001462,-0.000607,0.006149,-0.041040,-0.022718,1.008136,39463.891242
-0.000397,0.005785,0.002953,-0.041040,-0.022718,1.008136,39463.892277
-0.004658,-0.002737,-0.008765,-0.013757,0.036975,1.015918,39463.896268
0.002799,0.000459,-0.000243,-0.000665,0.052996,0.998614,39463.901273
-0.000397,-0.000607,0.004018,-0.019342,0.007586,0.978473,39463.906246
0.000668,0.000459,0.005083,-0.039942,-0.041303,0.990191,39463.911272
0.000668,-0.000607,0.000822,-0.044061,-0.029218,1.001086,39463.916244
0.002799,0.002589,-0.001308,-0.026392,0.023242,1.006946,39463.921272
0.000668,-0.002737,-0.002373,-0.003412,0.055377,0.997790,39463.926239
0.001733,-0.000607,-0.001308,-0.005060,0.025348,0.997424,39463.931269
0.003864,-0.001672,-0.000243,-0.034448,-0.036176,0.994677,39463.936240
-0.000397,-0.002737,0.007214,-0.056055,-0.045606,0.987445,39463.941275
-0.000397,0.000459,-0.003439,-0.035089,0.004016,0.997424,39463.946239
0.002799,0.005785,-0.003439,-0.001581,0.049426,1.010058,39463.951266
0.002799,0.000459,-0.004504,0.005011,0.041095,1.000262,39463.956241
0.003864,-0.001672,-0.000243,-0.026026,-0.014478,0.979022,39463.961268
-0.001462,-0.001672,0.008279,-0.052301,-0.050641,0.976458,39463.966244
0.003864,-0.000607,-0.000243,-0.042597,-0.012189,0.996783,39463.971273
-0.001462,0.002589,-0.004504,-0.009455,0.041278,1.012988,39463.976238
-0.000397,-0.001672,-0.003439,0.000250,0.052722,0.999438,39463.981274
0.001733,-0.001672,0.000822,-0.029505,0.005206,0.975909,39463.986237
-0.001462,-0.002737,0.009344,-0.046442,-0.043134,0.972430,39463.991269
0.004929,0.000459,0.006149,-0.042597,-0.025464,1.002368,39463.996246
0.001733,-0.000607,-0.005569,-0.024561,0.030658,1.014178,39464.001274
0.000668,0.001524,0.002953,0.000159,0.057940,0.995868,39464.006239
0.001733,-0.000607,-0.005569,-0.007715,0.018847,0.975177,39464.011273
-0.002528,-0.000607,0.001888,-0.034174,-0.037275,0.986896,39464.016232
0.001733,-0.000607,0.002953,-0.049372,-0.041211,0.992389,39464.021246
-0.001462,0.002589,-0.000243,-0.038294,0.005023,0.999164,39464.026267
-0.002528,0.001524,-0.001308,0.003271,0.036425,1.002368,39464.031247
-0.003593,0.003654,-0.004504,-0.026666,-0.022351,0.994037,39464.036266
0.001733,-0.000607,0.001888,-0.049280,-0.047712,0.989642,39464.041242
0.001733,-0.002737,0.005083,-0.044061,-0.002301,0.998980,39464.046267
0.001733,0.000459,0.007214,-0.008814,0.043292,1.015643,39464.051246
-0.002528,-0.002737,-0.003439,0.002905,0.047870,1.009051,39464.056266
0.001733,0.001524,-0.001308,-0.026300,-0.006787,0.983600,39464.061247
-0.001462,0.000459,-0.001308,-0.048822,-0.048627,0.970233,39464.066268
-0.001462,-0.003803,0.002953,-0.046625,-0.025830,0.999438,39464.071244
0.002799,-0.002737,-0.001308,-0.022455,0.032031,1.008502,39464.076270
-0.000397,0.000459,0.000822,-0.003320,0.055743,0.994403,39464.081247
-0.000397,0.003654,0.004018,-0.012934,0.018481,0.974353,39464.086266
-0.003593,0.000459,-0.005569,-0.035364,-0.044873,0.981219,39464.091245
-0.000397,-0.001672,-0.004504,-0.044428,-0.031598,0.993304,39464.096264
0.000668,0.000459,0.005083,-0.037012,0.017657,1.010516,39464.101245
-0.001462,-0.002737,0.005083,-0.007349,0.054095,0.992663,39464.106262
0.000668,0.001524,0.001888,-0.006799,0.026446,0.990649,39464.111248
-0.002528,0.001524,-0.000243,-0.028681,-0.027570,0.991656,39464.116266
-0.003593,-0.001672,-0.007700,-0.050745,-0.040570,0.993670,39464.121242
-0.000397,0.000459,0.005083,-0.043421,0.005023,1.001727,39464.126264
0.005994,-0.002737,0.004018,-0.009821,0.045489,1.006122,39464.131242
0.000668,0.004720,-0.001308,0.002905,0.044024,1.005664,39464.136269
-0.000397,0.002589,-0.002373,-0.022547,-0.012830,0.992846,39464.141245
0.001733,0.002589,-0.004504,-0.045984,-0.046064,0.979663,39464.146239
-0.006789,-0.002737,0.001888,-0.040674,-0.016767,1.002185,39464.151268
0.001733,-0.001672,0.001888,-0.013941,0.038165,1.020495,39464.156236
-0.000397,0.001524,0.002953,-0.001947,0.052630,1.009418,39464.161274
0.000668,-0.000607,0.004018,-0.019708,0.004290,0.985522,39464.166247
-0.001462,0.001524,-0.000243,-0.037744,-0.045331,0.980761,39464.171272
-0.004658,0.000459,-0.006634,-0.041956,-0.027753,1.003284,39464.176238
-0.000397,0.003654,0.004018,-0.020166,0.029010,1.020953,39464.181269
0.002799,-0.000607,0.002953,-0.001856,0.057940,0.996509,39464.186237
0.001733,0.000459,0.002953,-0.016870,0.021594,0.977191,39464.191273
0.000668,0.001524,-0.002373,-0.040674,-0.038556,0.982593,39464.196241
-0.000397,-0.000607,-0.006634,-0.042505,-0.042951,0.997424,39464.201270
-0.003593,-0.002737,-0.002373,-0.029413,0.008593,1.006946,39464.206244
-0.001462,-0.000607,0.006149,-0.006891,0.052996,0.997699,39464.211272
-0.005724,-0.002737,0.001888,-0.005335,0.039996,0.988727,39464.216240
0.002799,0.003654,0.000822,-0.028040,-0.019513,0.976733,39464.221273
-0.002528,-0.000607,-0.002373,-0.052851,-0.044324,0.978290,39464.226241
-0.001462,0.002589,-0.003439,-0.045343,-0.008893,0.992389,39464.231272
0.000668,0.000459,0.001888,-0.011560,0.041827,1.005664,39464.236241
-0.002528,0.001524,0.000822,0.007025,0.050433,1.012164,39464.241274
0.000668,0.001524,0.004018,-0.023371,0.001452,0.994128,39464.246244
0.005994,-0.000607,-0.008765,-0.050287,-0.040845,0.972339,39464.251269
0.002799,0.003654,-0.005569,-0.046259,-0.022077,0.996600,39464.256236
-0.000397,0.001524,0.002953,-0.014581,0.030841,1.023150,39464.261274
0.004929,-0.001672,0.000822,0.006842,0.053912,1.012530,39464.266238
0.002799,-0.001672,0.000822,-0.015131,0.014361,0.979022,39464.271247
0.003864,0.000459,-0.000243,-0.042963,-0.045423,0.980029,39464.276240
0.000668,0.000459,-0.005569,-0.044702,-0.040204,1.000903,39464.281254
0.001733,-0.000607,-0.000243,-0.028497,0.014544,1.018664,39464.286264
-0.000397,-0.002737,-0.001308,-0.004602,0.047870,1.001910,39464.291250
0.000668,-0.002737,0.005083,-0.003687,0.030291,0.989184,39464.296266
0.001733,0.000459,-0.000243,-0.031793,-0.028577,0.981128,39464.301242
0.002799,0.000459,-0.001308,-0.054315,-0.048902,0.991473,39464.306268
0.001733,-0.000607,-0.005569,-0.044245,-0.002210,0.996692,39464.311248
-0.000397,-0.002737,-0.000243,-0.009638,0.048785,1.009601,39464.316265
0.005994,-0.000607,0.004018,0.006750,0.049151,1.011249,39464.321246
-0.000397,0.001524,0.001888,-0.024011,-0.006330,0.992572,39464.326272
0.004929,-0.001672,-0.001308,-0.051111,-0.044233,0.967486,39464.331245
0.003864,0.001524,-0.000243,-0.053400,-0.023267,0.986255,39464.336265
0.002799,0.001524,-0.002373,-0.016687,0.034137,1.002368,39464.341244
-0.002528,-0.001672,-0.002373,0.002997,0.050616,1.007678,39464.346267
0.000668,0.000459,0.001888,-0.019434,0.005297,0.986529,39464.351245
0.002799,-0.000607,0.001888,-0.047632,-0.045514,0.977466,39464.356264
0.000668,0.000459,0.000822,-0.045069,-0.034528,0.994952,39464.361248
-0.003593,0.000459,-0.001308,-0.021814,0.020678,1.018207,39464.366263
0.001733,-0.000607,-0.002373,-0.005060,0.054095,1.005847,39464.371246
0.001733,0.001524,0.001888,-0.013300,0.024066,0.981952,39464.376269
-0.000397,-0.001672,0.004018,-0.037836,-0.034620,0.979754,39464.381240
-0.003593,0.001524,0.001888,-0.047083,-0.045880,1.005115,39464.386264
0.003864,0.002589,-0.004504,-0.036737,0.004382,1.016101,39464.391250
0.000668,-0.001672,-0.003439,-0.010004,0.049609,1.010699,39464.396268
-0.002528,-0.001672,0.005083,0.000433,0.040179,0.992755,39464.401244
0.001733,-0.002737,0.004018,-0.026758,-0.015485,0.992480,39464.406239
-0.001462,-0.005933,0.004018,-0.047357,-0.048719,0.983600,39464.411275
0.002799,0.000459,-0.001308,-0.044611,-0.014386,0.995410,39464.416246
0.001733,0.002589,-0.006634,-0.015955,0.038623,1.001452,39464.421274
-0.000397,-0.001672,0.000822,-0.004328,0.045947,1.003833,39464.426246
0.000668,-0.004868,-0.001308,-0.021539,0.003833,0.993945,39464.431272
0.000668,-0.002737,0.010410,-0.047998,-0.041944,0.969775,39464.436241
-0.003593,0.001524,-0.001308,-0.046442,-0.027112,0.990100,39464.441277
0.005994,0.004720,-0.007700,-0.017603,0.027911,1.020404,39464.446242
-0.005724,-0.002737,-0.002373,0.000891,0.054553,1.009875,39464.451274
0.004929,-0.000607,0.000822,-0.015863,0.022693,0.984424,39464.456241
0.005994,-0.002737,0.001888,-0.039667,-0.036176,0.973529,39464.461283
0.004929,0.000459,0.007214,-0.048731,-0.038831,0.990832,39464.466244
0.003864,0.000459,-0.003439,-0.033533,0.007129,1.011706,39464.471271
-0.002528,0.001524,-0.002373,-0.007532,0.048785,0.994586,39464.476245
0.000668,0.000459,0.002953,-0.008539,0.028277,0.984149,39464.481273
-0.004658,0.000459,0.000822,-0.028131,-0.029584,0.985705,39464.486243
0.000668,0.001524,0.001888,-0.045984,-0.048536,1.003009,39464.491272
0.003864,0.002589,0.000822,-0.039301,-0.000562,1.016742,39464.495293
-0.001462,0.002589,-0.002373,-0.005976,0.053912,1.006671,39464.500270
0.001733,0.001524,-0.001308,0.004645,0.050433,1.004748,39464.505284
-0.001462,-0.000607,-0.001308,-0.020349,-0.000104,0.995410,39464.510270
0.003864,-0.005933,0.007214,-0.046167,-0.042401,0.983600,39464.515284
0.008125,0.000459,0.001888,-0.043878,-0.019330,0.989825,39464.520289
0.004929,0.000459,-0.002373,-0.016138,0.023059,1.009143,39464.525282
0.001733,0.001524,-0.004504,0.007757,0.049334,1.006396,39464.530286
0.005994,-0.004868,-0.004504,-0.017786,0.004565,0.977191,39464.535262
-0.000397,-0.003803,0.004018,-0.047357,-0.053662,0.963275,39464.540296
-0.000397,-0.000607,0.006149,-0.046167,-0.038922,0.981311,39464.545259
0.000668,0.000459,0.002953,-0.023554,0.021045,1.017108,39464.550293
0.001733,-0.000607,-0.004504,0.001349,0.063708,1.013171,39464.555258
-0.001462,-0.000607,-0.001308,-0.009180,0.033953,0.987536,39464.560306
0.003864,-0.001672,-0.001308,-0.033533,-0.021894,0.984332,39464.565256
0.007060,0.000459,0.005083,-0.046259,-0.040570,1.002826,39464.570297
0.003864,-0.004868,0.002953,-0.038202,0.004748,1.013904,39464.575260
0.001733,0.001524,-0.000243,-0.013025,0.048327,1.000995,39464.580295
-0.001462,0.000459,-0.003439,-0.000940,0.040545,0.984973,39464.585255
0.003864,0.001524,-0.003439,-0.045984,-0.048536,0.975909,39464.590298
0.002799,-0.002737,0.006149,-0.047907,-0.019147,0.985156,39464.595259
0.000668,0.000459,0.002953,-0.017603,0.036700,0.991290,39464.600299
-0.000397,0.000459,0.004018,0.004004,0.052447,0.999804,39464.605254
0.002799,0.002589,-0.001308,-0.014490,0.008319,0.991748,39464.610294
-0.000397,0.000459,-0.002373,-0.048090,-0.040937,0.987811,39464.615256
0.000668,-0.003803,0.005083,-0.049280,-0.026929,0.992572,39464.620294
0.001733,-0.000607,0.002953,-0.023645,0.026812,1.020587,39464.625257
0.000668,0.003654,0.001888,0.007025,0.061236,1.018298,39464.630297
0.008125,0.000459,-0.000243,-0.012659,0.025164,0.996600,39464.635260
0.002799,0.000459,-0.005569,-0.040491,-0.034070,0.971240,39464.640298
0.005994,0.000459,-0.001308,-0.041315,-0.046064,0.989276,39464.645255
-0.001462,-0.003803,0.001888,-0.030237,0.006030,1.011340,39464.650297
0.003864,0.001524,0.007214,-0.006708,0.048510,1.005206,39464.655290
0.000668,-0.001672,-0.000243,-0.012750,0.035601,0.977282,39464.660269
-0.004658,0.004720,-0.000243,-0.032160,-0.019971,0.973987,39464.665280
0.000668,-0.001672,-0.002373,-0.046167,-0.046704,0.990191,39464.670267
-0.001462,0.000459,0.002953,-0.040857,-0.005689,1.009601,39464.675282
0.001733,-0.003803,0.002953,-0.012476,0.051440,1.010516,39464.680263
-0.000397,0.000459,0.005083,0.006567,0.055651,0.999347,39464.685280
0.004929,0.003654,0.006149,-0.017969,0.003741,0.993579,39464.690275
0.000668,0.000459,-0.005569,-0.046259,-0.044049,0.983050,39464.695286
-0.001462,-0.000607,-0.000243,-0.051019,-0.024091,0.985064,39464.700272
0.001733,-0.000607,-0.002373,-0.023645,0.027819,1.003009,39464.705282
0.000668,0.000459,0.001888,0.000891,0.049426,1.004931,39464.710267
0.003864,-0.000607,-0.002373,-0.014856,0.012072,0.990924,39464.715289
0.000668,-0.001672,-0.004504,-0.044245,-0.042859,0.974261,39464.720273
-0.001462,0.002589,-0.006634,-0.047266,-0.037458,0.993762,39464.725281
-0.003593,0.000459,0.005083,-0.021265,0.018664,1.013263,39464.730269
-0.000397,0.001524,0.009344,0.001166,0.059130,1.022510,39464.735288
0.000668,-0.000607,-0.000243,-0.006983,0.039172,1.002734,39464.740269
-0.000397,0.003654,-0.002373,-0.031244,-0.022077,0.982593,39464.745280
0.000668,0.000459,-0.003439,-0.043512,-0.041486,1.000445,39464.750271
0.005994,-0.000607,-0.002373,-0.040033,0.001086,1.025989,39464.755288
0.000668,-0.004868,-0.001308,-0.014124,0.044207,1.007770,39464.760268
0.003864,0.001524,0.008279,-0.004785,0.046222,0.983600,39464.765284
0.002799,-0.003803,-0.002373,-0.023279,-0.013929,0.979297,39464.770290
0.003864,0.004720,-0.002373,-0.041132,-0.053846,0.983874,39464.775282
-0.003593,-0.000607,-0.005569,-0.041590,-0.020703,0.992389,39464.780284
-0.001462,-0.000607,0.005083,-0.019342,0.033404,0.994403,39464.785255
0.001733,-0.002737,0.005083,0.004187,0.050891,1.003100,39464.790295
-0.003593,0.003654,0.001888,-0.017786,0.010791,0.993304,39464.795267
0.002799,0.000459,-0.005569,-0.046991,-0.036908,0.985980,39464.800296
-0.003593,0.002589,0.000822,-0.048456,-0.028302,0.997424,39464.805256
0.000668,0.000459,0.000822,-0.020532,0.029101,1.012622,39464.810296
-0.001462,-0.001672,0.005083,-0.001215,0.057116,1.016192,39464.815253
0.002799,-0.006998,0.005083,-0.013300,0.024981,0.996051,39464.820296
0.007060,-0.000607,-0.001308,-0.039301,-0.028394,0.970050,39464.825263
0.001733,-0.000607,-0.001308,-0.048456,-0.045240,0.975635,39464.830300
-0.000397,0.003654,-0.001308,-0.035822,0.002368,1.004107,39464.835255
0.000668,0.000459,0.000822,-0.010004,0.050067,1.009601,39464.840297
0.000668,-0.001672,0.002953,-0.006525,0.035968,0.985156,39464.845258
0.003864,-0.002737,0.002953,-0.030695,-0.024366,0.977832,39464.850308
-0.001462,0.004720,-0.000243,-0.045069,-0.050275,0.984973,39464.855258
0.000668,0.003654,-0.005569,-0.046991,-0.011914,1.010608,39464.860302
-0.001462,-0.000607,0.001888,-0.018427,0.044848,1.006305,39464.865259
-0.000397,0.000459,0.001888,0.004462,0.050067,0.998431,39464.870299
-0.000397,0.003654,-0.001308,-0.013666,0.002826,0.997424,39464.875259
0.002799,0.001524,-0.001308,-0.042139,-0.046064,1.004565,39464.880297
0.002799,0.001524,-0.001308,-0.050104,-0.024823,1.003467,39464.885260
0.000668,-0.004868,-0.005569,-0.021356,0.029651,1.006213,39464.890296
0.001733,0.000459,0.005083,0.006109,0.057483,1.003375,39464.895263
-0.002528,-0.000607,0.000822,-0.012934,0.017657,1.000171,39464.900307
-0.001462,0.001524,0.004018,-0.042505,-0.039380,0.976001,39464.905287
0.001733,0.000459,-0.004504,-0.051386,-0.050367,0.989093,39464.910272
-0.004658,0.001524,-0.005569,-0.029779,0.010882,1.016009,39464.915291
0.000668,-0.000607,-0.003439,-0.000665,0.054370,1.021686,39464.920271
0.001733,-0.003803,0.006149,-0.007440,0.038714,0.991107,39464.925276
0.000668,-0.001672,0.005083,-0.036646,-0.015851,0.969500,39464.930274
-0.001462,0.000459,-0.002373,-0.045343,-0.043866,0.981219,39464.935289
-0.003593,0.001524,-0.007700,-0.036279,-0.001569,1.015735,39464.940272
-0.001462,-0.001672,-0.002373,-0.010736,0.046679,1.013904,39464.945342
0.001733,-0.003803,0.002953,-0.000574,0.044574,1.002093,39464.950270
-0.000397,-0.002737,0.006149,-0.023920,-0.005414,0.984332,39464.955289
0.001733,-0.001672,0.002953,-0.044702,-0.046979,0.986804,39464.960271
0.000668,-0.000607,-0.002373,-0.045069,-0.020520,0.988360,39464.965287
-0.004658,-0.000607,-0.002373,-0.024561,0.030200,0.994677,39464.970267
0.000668,-0.002737,-0.000243,0.004828,0.053180,0.990741,39464.975287
0.003864,-0.000607,0.002953,-0.007623,0.014636,0.994128,39464.980270
-0.001462,-0.002737,0.001888,-0.040766,-0.038739,0.988727,39464.985287
-0.003593,-0.000607,-0.003439,-0.054041,-0.031598,0.990649,39464.990269
-0.002528,0.000459,0.004018,-0.032800,0.019305,0.998523,39464.995290
0.001733,0.002589,-0.002373,-0.000116,0.056933,1.012713,39465.000271
0.001733,-0.004868,0.005083,-0.008081,0.033130,0.997516,39465.005285
0.001733,-0.000607,0.004018,-0.035089,-0.032331,0.984973,39465.010271
0.002799,0.002589,0.005083,-0.043787,-0.046704,0.987445,39465.015288
0.000668,0.001524,-0.006634,-0.030786,0.000537,1.016559,39465.020298
0.003864,0.001524,-0.004504,-0.002130,0.048510,1.011523,39465.025284
-0.000397,-0.003803,-0.002373,-0.005335,0.040271,0.988727,39465.030287
0.001733,-0.000607,0.005083,-0.031336,-0.016492,0.976367,39465.035263
-0.001462,0.001524,0.000822,-0.043237,-0.055402,0.991015,39465.040305
0.000668,0.001524,0.000822,-0.033899,-0.016401,1.014361,39465.045262
-0.000397,0.000459,-0.004504,-0.015955,0.037066,1.014544,39465.050297
-0.002528,0.002589,-0.003439,0.005926,0.056750,0.998797,39465.055261
-0.006789,-0.000607,0.000822,-0.041406,-0.036908,0.988543,39465.060299
-0.003593,-0.003803,0.005083,-0.049005,-0.019056,0.991565,39465.065256
-0.002528,0.000459,0.005083,-0.027582,0.026995,0.992663,39465.070303
0.000668,-0.001672,-0.004504,0.003088,0.051440,0.993030,39465.075264
-0.002528,-0.000607,-0.005569,-0.007074,0.023150,0.988360,39465.080307
-0.001462,0.001524,-0.005569,-0.039026,-0.040479,0.970233,39465.085263
-0.000397,-0.003803,0.004018,-0.055139,-0.044599,0.971698,39465.090302
-0.002528,0.000459,0.008279,-0.033991,0.006579,0.993213,39465.095261
0.001733,0.004720,0.002953,-0.002954,0.055651,1.010058,39465.100308
-0.003593,0.002589,-0.005569,-0.006159,0.044665,1.000995,39465.105256
-0.000397,0.001524,-0.001308,-0.035547,-0.019880,0.987903,39465.110301
-0.002528,-0.001672,0.000822,-0.035547,-0.019880,0.987903,39465.114278
0.000668,0.003654,0.001888,-0.046900,-0.041578,0.986255,39465.119256
-0.002528,0.000459,0.002953,-0.039850,-0.004407,1.012530,39465.124283
0.000668,-0.001672,-0.001308,-0.012384,0.052447,1.020038,39465.129257
-0.000397,0.005785,-0.005569,0.002630,0.049792,1.005572,39465.134281
0.001733,-0.001672,-0.006634,-0.015863,-0.004773,0.986163,39465.139254
0.002799,-0.000607,-0.000243,-0.038934,-0.052655,0.998431,39465.144271
0.001733,-0.002737,0.004018,-0.046991,-0.025556,0.999988,39465.149258
0.001733,-0.000607,0.001888,0.003638,0.049792,0.977282,39465.154290
-0.003593,-0.000607,-0.004504,-0.011102,0.014453,0.977374,39465.159282
-0.001462,0.002589,-0.003439,-0.039484,-0.039746,0.971881,39465.164257
-0.007854,-0.004868,-0.001308,-0.049646,-0.046521,0.985614,39465.169283
-0.003593,-0.005933,0.005083,-0.031153,0.015185,0.999804,39465.174256
-0.001462,0.002589,0.008279,-0.003504,0.059130,1.004748,39465.179290
-0.000397,0.002589,-0.002373,-0.009912,0.043841,1.000079,39465.184249
0.003864,0.002589,-0.006634,-0.036829,-0.022718,0.978290,39465.189283
0.002799,0.002589,-0.000243,-0.047174,-0.037641,0.979663,39465.194256
0.002799,-0.002737,0.001888,-0.035089,0.001086,1.016009,39465.199285
0.000668,0.000459,0.002953,-0.002405,0.046862,1.014178,39465.204251
0.001733,-0.002737,0.001888,-0.000757,0.038348,0.998065,39465.209282
-0.003593,0.001524,-0.000243,-0.029138,-0.015119,0.960895,39465.214254
0.001733,0.000459,-0.000243,-0.052393,-0.058789,0.971423,39465.219284
-0.001462,0.002589,-0.001308,-0.039026,-0.023816,0.997882,39465.224254
-0.001462,-0.001672,0.002953,-0.021997,0.039904,1.007495,39465.229288
0.003864,0.002589,0.004018,-0.002497,0.057666,0.996600,39465.234257
-0.003593,0.001524,0.001888,-0.012110,0.015643,0.990283,39465.239285
-0.001462,0.003654,-0.000243,-0.039850,-0.037824,0.994677,39465.244251
0.002799,-0.001672,-0.003439,-0.049646,-0.024732,1.004657,39465.249282
0.003864,-0.003803,0.002953,-0.035639,0.024157,1.000354,39465.254254
0.001733,0.003654,0.000822,-0.005976,0.052081,1.002917,39465.259294
0.001733,0.000459,-0.003439,-0.004328,0.022967,0.997973,39465.264254
0.000668,0.004720,-0.002373,-0.036279,-0.038739,0.988543,39465.269285
-0.003593,-0.001672,-0.003439,-0.048090,-0.049359,0.983050,39465.274253
-0.002528,-0.001672,0.002953,-0.036188,-0.004956,0.997973,39465.279280
0.000668,-0.001672,0.002953,-0.002130,0.046954,1.009967,39465.284275
-0.000397,0.000459,0.002953,-0.000391,0.036975,1.001544,39465.289259
-0.002528,0.002589,-0.001308,-0.032343,-0.013379,0.987628,39465.294292
-0.003593,0.001524,-0.002373,-0.047357,-0.043592,0.984240,39465.299257
-0.004658,-0.002737,-0.000243,-0.036188,-0.008435,1.010699,39465.304278
0.000668,-0.000607,0.001888,-0.013574,0.048144,1.025989,39465.309261
0.001733,-0.004868,0.004018,-0.003961,0.054370,1.000537,39465.314277
-0.000397,0.002589,0.000822,-0.020532,0.005847,0.973529,39465.319259
0.001733,-0.000607,-0.003439,-0.041681,-0.046613,0.978839,39465.324281
0.004929,0.003654,-0.000243,-0.044885,-0.026746,0.997333,39465.329259
0.001733,0.000459,0.000822,-0.027216,0.025805,1.002002,39465.334278
0.007060,-0.002737,0.006149,0.001532,0.052539,0.988910,39465.339255
0.004929,-0.000607,0.001888,-0.008356,0.017749,0.990100,39465.344281
0.001733,0.006850,0.001888,-0.034632,-0.038556,0.987994,39465.349263
0.000668,0.002589,-0.005569,-0.054682,-0.040479,0.995318,39465.354282
-0.002528,-0.000607,0.004018,-0.036920,0.007403,1.010882,39465.359262
-0.002528,-0.003803,0.004018,-0.001673,0.047686,1.022967,39465.364282
-0.000397,0.001524,0.008279,-0.000208,0.034045,1.013080,39465.369258
0.000668,-0.004868,-0.001308,-0.033258,-0.022168,0.996234,39465.374293
0.001733,0.003654,-0.003439,-0.051203,-0.042585,0.980029,39465.379257
-0.006789,0.000459,-0.006634,-0.038477,-0.006971,1.003375,39465.384280
-0.001462,-0.000607,0.000822,-0.003412,0.045214,1.011157,39465.389258
0.000668,-0.000607,0.005083,0.001349,0.045581,1.002917,39465.394261
-0.000397,-0.003803,0.002953,-0.028864,-0.007795,0.976184,39465.399286
0.001733,0.001524,0.000822,-0.053491,-0.048078,0.970599,39465.404253
-0.003593,0.001524,-0.006634,-0.043512,-0.019971,0.991382,39465.409287
-0.001462,-0.001672,-0.000243,-0.024835,0.034320,1.009601,39465.414254
-0.002528,-0.003803,0.002953,-0.002954,0.056567,0.995501,39465.419285
-0.005724,0.003654,0.005083,-0.016962,0.013354,0.984515,39465.424254
-0.002528,0.003654,-0.002373,-0.040491,-0.037824,0.990649,39465.429293
-0.000397,0.003654,-0.005569,-0.052667,-0.033704,1.007770,39465.434256
0.001733,0.001524,-0.004504,-0.033441,0.026995,1.014911,39465.439287
0.003864,0.001524,0.004018,-0.004511,0.058490,1.012256,39465.444257
0.000668,-0.000607,0.005083,-0.005335,0.028735,1.005664,39465.449285
0.007060,-0.002737,0.001888,-0.035181,-0.030500,0.995959,39465.454262
0.002799,0.000459,-0.001308,-0.056330,-0.046888,0.985248,39465.459289
-0.000397,-0.001672,0.000822,-0.038202,-0.007520,1.008227,39465.464251
0.001733,-0.002737,-0.002373,0.000159,0.042285,1.015918,39465.469287
0.001733,-0.000607,0.001888,0.002539,0.039538,0.999621,39465.474249
-0.002528,-0.000607,0.005083,-0.027490,-0.015668,0.976367,39465.479287
0.000668,-0.001672,0.002953,-0.049188,-0.049817,0.970599,39465.484251
-0.001462,0.003654,-0.004504,-0.039209,-0.013837,0.997149,39465.489292
-0.001462,0.001524,-0.005569,-0.013391,0.040271,1.015185,39465.494256
-0.001462,-0.001672,0.000822,-0.002405,0.058398,1.007312,39465.499287
-0.004658,-0.000607,0.000822,-0.020532,0.010150,0.985248,39465.504251
0.000668,-0.000607,0.000822,-0.040033,-0.040021,0.984698,39465.509290
