//gyro_x,gyro_y,gyro_z,acc_x,acc_y,acc_z,time
-0.014246,-0.004868,0.009344,-0.041498,0.002459,0.960071,39578.654982
-0.014246,-0.010194,0.009344,-0.044702,0.046679,0.967578,39578.659958
-0.012115,-0.009129,0.006149,-0.030329,0.076892,0.948626,39578.664981
-0.012115,0.003654,0.005083,-0.022089,0.050341,0.939563,39578.669957
-0.009985,0.004720,0.002953,-0.052301,-0.007428,0.974902,39578.674959
-0.012115,0.003654,0.008279,-0.057520,-0.001477,0.983600,39578.679983
-0.013180,-0.002737,0.010410,-0.040674,0.031939,1.024158,39578.684953
-0.007854,0.002589,0.007214,0.000982,0.085864,1.043292,39578.689985
-0.006789,0.001524,0.005083,0.002814,0.058307,1.021319,39578.694955
-0.006789,0.003654,-0.000243,-0.046442,0.011432,1.003100,39578.699988
-0.006789,0.004720,0.004018,-0.059534,-0.016492,0.919879,39578.704958
-0.002528,-0.008064,0.001888,-0.032068,-0.000013,0.967303,39578.709988
-0.006789,0.003654,0.011475,0.000250,0.061602,0.990375,39578.714955
-0.006789,-0.000607,0.006149,-0.009363,0.059588,0.919696,39578.719983
-0.009985,0.005785,0.006149,-0.039209,0.027636,0.900104,39578.724953
-0.012115,0.008981,0.002953,-0.037653,-0.017224,0.898364,39578.729991
-0.008919,0.004720,0.005083,-0.032709,-0.007428,0.963458,39578.734955
-0.004658,0.007915,0.007214,-0.010278,0.075793,0.981036,39578.739983
-0.005724,0.001524,0.009344,-0.016779,0.065814,0.962268,39578.744953
-0.003593,0.008981,0.004018,-0.011743,0.045214,0.982501,39578.749988
-0.004658,0.006850,0.000822,0.009680,-0.009626,1.011798,39578.754948
-0.008919,-0.000607,0.006149,-0.006433,-0.016767,1.019946,39578.759983
-0.007854,-0.004868,0.005083,-0.014490,0.051715,1.021869,39578.763983
-0.005724,0.005785,0.001888,-0.023371,-0.028302,1.026263,39579.988004
-0.006789,0.002589,-0.001308,-0.039484,-0.046613,1.026446,39579.991991
-0.006789,0.002589,-0.001308,-0.043878,-0.014569,1.010058,39579.996955
-0.003593,0.000459,0.001888,-0.043878,-0.014569,1.010058,39579.998003
-0.006789,-0.001672,0.005083,-0.006891,0.020587,1.013263,39580.001991
-0.006789,-0.001672,0.005083,0.012427,-0.006971,1.006122,39580.006960
-0.011050,-0.000607,0.005083,0.012427,-0.006971,1.006122,39580.007999
-0.017441,-0.002737,0.008279,-0.010370,-0.050000,0.972705,39580.011985
-0.016376,0.001524,0.005083,-0.063288,-0.050824,0.924731,39580.016952
-0.022768,-0.002737,0.001888,-0.053766,0.000903,0.950732,39580.021989
-0.024898,-0.002737,0.002953,-0.013025,0.041186,1.004748,39580.026959
-0.015311,0.001524,0.008279,0.013159,0.051806,0.998523,39580.031987
-0.014246,-0.002737,0.005083,-0.048364,0.016833,0.963183,39580.036956
-0.005724,0.004720,0.005083,-0.080499,-0.035810,0.952380,39580.041993
-0.002528,0.006850,-0.007700,-0.031610,-0.004499,0.980395,39580.046954
-0.006789,0.001524,0.004018,0.001623,0.036425,1.028094,39580.051989
-0.013180,0.003654,0.006149,0.007025,0.041919,1.025073,39580.056957
-0.004658,-0.002737,0.008279,-0.025568,-0.003400,0.968036,39580.061962
-0.009985,0.002589,0.004018,-0.023371,-0.058332,1.001636,39580.066982
-0.016376,-0.001672,-0.000243,-0.017969,-0.058423,1.024707,39580.071962
-0.016376,-0.008064,-0.003439,-0.038385,-0.019056,1.031940,39580.076982
-0.022768,-0.004868,0.002953,-0.022821,0.037249,0.987811,39580.081959
-0.028094,-0.008064,0.004018,-0.010462,0.006854,0.969500,39580.086986
-0.022768,-0.006998,0.007214,-0.018335,-0.038831,1.016559,39580.091960
-0.018507,-0.006998,0.002953,-0.031885,-0.029401,0.967944,39580.096979
-0.017441,-0.008064,0.000822,-0.047449,0.018390,0.958239,39580.101961
-0.012115,-0.000607,0.002953,-0.042505,0.065081,0.939105,39580.106988
-0.013180,-0.004868,0.002953,-0.029138,0.054187,0.934802,39580.111959
-0.007854,0.003654,0.005083,-0.041223,-0.004041,0.940661,39580.116981
-0.012115,0.005785,0.008279,-0.057520,-0.034436,0.903766,39580.121968
-0.014246,0.014307,0.001888,-0.075098,-0.008344,0.974719,39580.126981
-0.006789,0.014307,-0.003439,-0.019983,0.037890,1.014728,39580.131961
-0.001462,0.010046,0.004018,0.021673,0.041095,1.021136,39580.136984
-0.005724,0.007915,0.008279,-0.006250,0.015002,1.018390,39580.141961
-0.000397,0.007915,0.002953,-0.037836,-0.036542,0.996875,39580.146984
-0.004658,0.010046,0.004018,-0.064935,-0.027295,1.025531,39580.151962
-0.017441,0.003654,-0.003439,-0.049372,0.028460,1.043475,39580.156982
-0.013180,-0.005933,0.000822,0.013983,0.024798,1.092914,39580.161961
-0.017441,-0.005933,0.009344,0.009588,-0.025281,1.081836,39580.166981
-0.014246,-0.004868,0.012540,-0.053217,-0.047895,0.982226,39580.171960
-0.017441,-0.008064,-0.000243,-0.107233,-0.051191,0.963916,39580.176984
-0.021703,-0.005933,0.002953,-0.103021,-0.013471,0.959430,39580.181957
-0.028094,-0.008064,-0.002373,-0.024652,0.050616,0.967761,39580.186980
-0.034486,-0.001672,0.002953,0.002997,0.050067,1.017016,39580.191960
-0.021703,-0.009129,0.008279,-0.061182,0.007037,0.965564,39580.196954
-0.006789,-0.005933,0.001888,-0.109888,-0.017682,0.935443,39580.201990
-0.006789,-0.003803,0.006149,-0.084436,0.023150,0.973163,39580.206955
-0.006789,0.002589,-0.000243,-0.036737,0.037890,1.018939,39580.211990
-0.008919,0.001524,-0.000243,-0.031610,0.046588,1.002551,39580.216958
-0.016376,-0.002737,0.002953,-0.080133,0.022876,0.941668,39580.221992
-0.012115,-0.001672,0.012540,-0.095606,-0.044965,0.967761,39580.226958
-0.008919,0.000459,0.009344,-0.053308,-0.032788,1.035235,39580.231984
-0.008919,0.002589,-0.001308,-0.013666,0.024707,1.062243,39580.236960
-0.006789,-0.000607,0.006149,-0.030969,0.050341,0.984973,39580.241990
-0.013180,-0.002737,0.002953,-0.058893,0.017749,0.941211,39580.246961
-0.017441,0.003654,0.006149,-0.058435,-0.032056,0.947436,39580.251987
-0.016376,0.003654,0.007214,-0.033167,-0.033155,0.993854,39580.256953
-0.017441,0.006850,0.001888,-0.034632,0.024249,1.036975,39580.261989
-0.005724,0.006850,-0.002373,-0.049372,0.070117,0.980212,39580.266958
-0.000397,0.006850,0.001888,-0.023279,0.055468,0.978930,39580.271985
0.000668,0.011111,0.005083,-0.035272,-0.009992,0.989184,39580.276957
-0.000397,0.005785,0.005083,-0.053949,-0.028394,0.968219,39580.281994
-0.004658,0.011111,0.007214,-0.056970,0.018664,0.982867,39580.286955
-0.001462,0.008981,-0.001308,0.020666,0.029559,1.076434,39580.291991
-0.000397,0.010046,-0.001308,-0.004419,-0.033796,1.061053,39580.296957
0.000668,0.005785,-0.004504,-0.048090,-0.063092,1.014361,39580.301967
-0.001462,-0.000607,0.008279,-0.048914,-0.022168,1.032947,39580.306957
-0.012115,0.001524,0.007214,0.001990,0.027728,1.089160,39580.311967
-0.016376,-0.000607,0.000822,0.013067,0.037707,1.078723,39580.316995
-0.022768,-0.006998,0.000822,-0.016962,0.007129,1.047412,39580.321956
-0.020637,-0.013390,0.008279,-0.047724,-0.028943,1.025073,39580.326982
-0.015311,-0.016586,0.002953,-0.038751,-0.033429,1.011249,39580.331958
-0.001462,-0.019781,0.006149,-0.012293,0.031024,1.009051,39580.336984
-0.008919,-0.017651,0.009344,-0.013941,0.057849,0.971240,39580.341961
-0.015311,-0.014455,-0.000243,-0.064844,0.019397,0.900744,39580.346986
-0.014246,-0.011259,0.002953,-0.091669,-0.019880,0.865405,39580.351960
-0.014246,-0.008064,0.005083,-0.092584,-0.027753,0.919238,39580.356981
-0.011050,-0.005933,0.008279,-0.064661,0.020953,0.978839,39580.361962
-0.003593,0.000459,0.006149,-0.030237,0.054828,0.980304,39580.366981
-0.002528,0.006850,0.004018,-0.040125,0.069659,0.953204,39580.371969
-0.004658,0.008981,-0.000243,-0.079035,0.017932,0.951373,39580.376982
0.002799,0.004720,-0.001308,-0.091303,-0.033063,0.985888,39580.381962
-0.003593,0.004720,0.008279,-0.056696,0.007953,1.013629,39580.386983
0.005994,0.002589,0.009344,-0.015863,0.036242,1.050616,39580.391955
0.002799,0.007915,0.007214,-0.008722,0.042559,1.049518,39580.396992
0.007060,0.003654,0.001888,-0.060724,-0.004316,0.968951,39580.401960
0.004929,-0.001672,-0.003439,-0.085169,-0.047620,0.955035,39580.406986
0.002799,0.001524,0.005083,-0.052851,-0.037641,0.970324,39580.411963
-0.004658,0.003654,0.010410,-0.013941,-0.000928,1.021045,39580.416989
-0.005724,0.005785,0.005083,-0.014673,0.037432,0.993854,39580.421959
-0.002528,0.003654,0.002953,-0.039209,0.008502,0.948626,39580.426980
-0.003593,0.008981,-0.002373,-0.056970,-0.044141,0.968768,39580.431962
-0.001462,0.008981,-0.000243,-0.019800,-0.032239,1.000171,39580.436961
-0.005724,0.001524,0.002953,-0.032984,0.017199,1.035235,39580.441991
-0.001462,0.005785,0.008279,-0.028681,0.058947,1.009601,39580.446957
-0.003593,0.000459,0.006149,-0.018060,0.034869,1.007220,39580.451984
-0.003593,0.005785,0.002953,-0.019800,-0.035810,1.047503,39580.456958
0.004929,-0.005933,-0.004504,-0.010004,-0.055677,1.060596,39580.461987
0.004929,-0.004868,0.000822,-0.021814,-0.026654,1.050799,39580.466955
-0.004658,-0.012325,0.007214,-0.008722,0.026995,1.022876,39580.471990
-0.002528,-0.010194,0.006149,0.004736,0.025805,0.999621,39580.476964
-0.007854,-0.006998,0.009344,-0.018976,-0.026563,1.017383,39580.481987
-0.015311,-0.011259,-0.003439,-0.041132,-0.065381,0.959338,39580.486959
-0.013180,-0.012325,0.004018,-0.036279,-0.049726,0.987170,39580.491989
-0.015311,-0.008064,0.000822,-0.026117,0.028552,0.997699,39580.496953
-0.013180,-0.013390,0.009344,-0.016504,0.054370,0.958606,39580.501990
-0.008919,0.001524,0.005083,-0.043604,0.028369,0.948443,39580.506960
-0.002528,0.002589,-0.002373,-0.060541,-0.006696,0.917041,39580.511994
-0.002528,0.001524,0.000822,-0.058161,-0.014295,0.964099,39580.516956
0.007060,0.008981,-0.005569,-0.039209,0.038348,0.998889,39580.521989
0.008125,0.003654,0.005083,-0.016046,0.065448,0.995227,39580.526961
0.007060,0.013242,0.009344,-0.027490,0.022143,0.973712,39580.531990
0.012386,0.010046,-0.000243,-0.030329,-0.040204,0.987811,39580.536957
0.014516,0.015372,-0.002373,-0.036829,-0.076917,1.027911,39580.541994
0.005994,0.008981,-0.002373,-0.031244,-0.028394,1.030292,39580.546956
-0.001462,0.006850,0.004018,-0.030969,0.002826,1.023334,39580.551987
0.001733,0.003654,0.008279,-0.011652,-0.008710,1.033679,39580.556955
-0.007854,0.006850,0.004018,-0.018060,-0.050733,1.042377,39580.561966
-0.007854,0.000459,-0.000243,-0.031427,-0.076184,1.034686,39580.566961
-0.012115,-0.005933,-0.000243,-0.034632,-0.025556,1.038257,39580.571967
-0.015311,-0.005933,-0.001308,-0.043237,0.023242,1.021960,39580.576981
-0.012115,-0.009129,0.008279,-0.035089,0.032397,1.010974,39580.581963
-0.008919,-0.009129,0.009344,-0.045069,-0.004407,0.988818,39580.586984
-0.005724,-0.011259,0.000822,-0.052027,-0.057508,0.969684,39580.591012
-0.005724,-0.011259,0.000822,-0.055139,-0.044324,0.972339,39580.595977
-0.009985,-0.002737,-0.001308,-0.055139,-0.044324,0.972339,39580.596994
-0.007854,-0.005933,-0.000243,-0.056513,0.010608,0.984240,39580.601013
-0.007854,-0.005933,-0.000243,-0.057062,0.032489,0.974811,39580.605975
-0.005724,-0.002737,0.008279,-0.057062,0.032489,0.974811,39580.606988
-0.002528,-0.009129,0.006149,-0.067224,0.003650,0.947345,39580.611011
-0.008919,-0.000607,0.002953,-0.060816,-0.052289,0.960071,39580.615973
-0.009985,0.003654,0.000822,-0.047449,-0.057965,0.995227,39580.621012
-0.015311,-0.000607,0.000822,-0.054773,0.001269,1.032672,39580.625973
-0.012115,-0.001672,0.001888,-0.067499,0.034869,0.997333,39580.631007
-0.004658,-0.005933,0.002953,-0.051203,0.011889,0.973803,39580.635973
-0.004658,-0.001672,0.007214,-0.040857,-0.038282,1.017383,39580.641013
-0.008919,0.000459,0.002953,-0.033441,-0.061170,1.001178,39580.645976
-0.003593,-0.002737,-0.001308,-0.070703,-0.019056,0.995501,39580.651011
-0.005724,-0.001672,-0.001308,-0.073450,0.033221,0.942950,39580.655978
-0.007854,-0.001672,-0.001308,-0.011469,0.026263,0.963183,39580.661014
-0.007854,0.004720,0.002953,-0.011102,-0.018689,0.990924,39580.665971
-0.003593,0.002589,0.008279,-0.058252,-0.063642,0.946704,39580.671013
-0.001462,0.010046,0.004018,-0.089197,-0.033612,0.919055,39580.675975
-0.005724,0.014307,-0.001308,-0.052851,0.008044,0.965930,39580.681012
-0.004658,0.012176,-0.004504,-0.009088,0.020953,1.008960,39580.685970
-0.006789,0.010046,0.006149,-0.012110,0.001361,1.033862,39580.690986
-0.009985,0.003654,0.004018,-0.036463,-0.056134,1.020587,39580.696004
0.001733,0.011111,-0.000243,-0.036737,-0.070600,1.043658,39580.700986
-0.002528,0.004720,-0.006634,-0.014398,-0.012922,1.104632,39580.706004
-0.004658,-0.004868,-0.002373,-0.005609,0.008593,1.068927,39580.710983
-0.005724,-0.010194,0.007214,-0.016962,-0.022535,1.030475,39580.716003
-0.018507,-0.014455,0.006149,-0.024744,-0.072431,1.022601,39580.720985
-0.020637,-0.012325,0.006149,-0.020075,-0.102094,1.043750,39580.726001
-0.022768,-0.013390,-0.002373,-0.029230,-0.047620,1.022235,39580.730987
-0.027029,-0.016586,0.002953,-0.039850,0.011706,0.985888,39580.735999
-0.023833,-0.016586,0.001888,-0.048548,0.012896,0.957049,39580.740986
-0.019572,-0.012325,-0.000243,-0.037470,-0.022626,0.948993,39580.746005
-0.024898,-0.008064,0.004018,-0.039301,-0.055036,0.964557,39580.750988
-0.017441,-0.008064,0.000822,-0.076471,-0.015210,0.952105,39580.756005
-0.015311,0.000459,-0.006634,-0.068964,0.041644,0.953570,39580.760987
-0.011050,0.005785,-0.005569,-0.033899,0.058123,0.948993,39580.765998
-0.011050,0.000459,0.001888,-0.031885,0.006396,0.981585,39580.770986
-0.001462,0.001524,0.004018,-0.061731,-0.042310,0.976367,39580.775997
-0.006789,0.007915,0.001888,-0.075006,-0.042218,0.965930,39580.780994
-0.003593,0.006850,-0.000243,-0.050562,0.001361,0.991290,39580.786001
-0.005724,0.007915,-0.005569,-0.029596,0.034137,1.027362,39580.790988
-0.006789,0.002589,-0.002373,-0.016596,0.005481,1.040820,39580.796008
-0.009985,-0.000607,0.001888,-0.032434,-0.057599,0.993121,39580.800989
-0.014246,0.000459,0.001888,-0.040033,-0.069959,1.006396,39580.806006
-0.009985,0.001524,0.000822,-0.049372,-0.018506,1.027362,39580.811004
-0.015311,-0.001672,-0.000243,-0.033075,0.019397,0.987445,39580.816005
-0.018507,0.000459,0.000822,-0.024561,0.014819,0.965838,39580.821002
-0.019572,0.002589,0.000822,-0.040125,-0.031873,0.967853,39580.825972
-0.017441,-0.001672,0.001888,-0.041864,-0.060529,0.990649,39580.831017
-0.014246,-0.000607,0.004018,-0.065302,-0.015302,0.972705,39580.835978
-0.006789,0.004720,0.001888,-0.062738,0.052172,0.961169,39580.841017
-0.012115,0.006850,-0.009830,-0.019251,0.050799,0.991931,39580.845979
-0.014246,0.003654,-0.003439,-0.006342,-0.001294,1.023700,39580.851008
-0.014246,-0.000607,0.001888,-0.054956,-0.040570,1.001910,39580.855977
-0.011050,-0.004868,0.005083,-0.028772,0.010608,1.058856,39580.861010
-0.009985,-0.002737,-0.000243,0.013067,0.028552,1.051166,39580.866032
-0.008919,-0.005933,-0.003439,-0.013574,0.003283,1.036334,39580.871010
-0.014246,-0.010194,0.000822,-0.075006,-0.051831,0.963824,39580.875977
-0.013180,-0.010194,0.001888,-0.068048,-0.050458,0.947619,39580.881018
-0.017441,-0.010194,0.002953,-0.034723,0.005297,1.003375,39580.885977
-0.027029,-0.008064,0.004018,-0.009271,0.034503,1.030017,39580.891012
-0.024898,-0.008064,-0.001308,-0.035455,0.024157,0.949817,39580.895985
-0.017441,-0.009129,-0.008765,-0.062921,-0.011640,0.927844,39580.901019
-0.013180,-0.002737,0.001888,-0.090296,-0.029401,0.896167,39580.905976
-0.003593,0.000459,0.001888,-0.065485,0.002368,0.955584,39580.911016
-0.007854,0.003654,0.004018,-0.030603,0.069110,0.970965,39580.915973
-0.008919,0.006850,-0.001308,-0.040857,0.046222,0.930682,39580.921019
-0.006789,0.007915,-0.002373,-0.051569,0.007220,0.983325,39580.925971
-0.003593,0.011111,-0.009830,-0.041315,-0.034162,0.985797,39580.931017
-0.000397,0.003654,-0.002373,-0.047083,-0.027570,1.029834,39580.935980
-0.003593,0.005785,0.004018,-0.039026,0.032489,1.001636,39580.941017
-0.004658,0.005785,-0.002373,0.009955,0.032672,1.018756,39580.946004
-0.007854,0.005785,-0.005569,-0.008173,-0.002668,1.035235,39580.950990
-0.006789,0.003654,-0.003439,-0.031885,-0.040570,0.996875,39580.955999
-0.011050,-0.001672,-0.003439,-0.064752,-0.052289,1.001544,39580.960994
-0.011050,-0.006998,-0.000243,-0.018793,0.006121,1.014270,39580.966002
-0.009985,-0.006998,0.005083,-0.010095,0.031024,1.017383,39580.970991
-0.014246,-0.004868,0.001888,-0.032617,0.038165,0.971515,39580.976007
-0.018507,-0.003803,-0.001308,-0.060816,-0.019422,0.917956,39580.980989
-0.021703,-0.009129,0.001888,-0.055139,-0.027753,0.935077,39580.986002
-0.016376,-0.000607,0.002953,-0.040399,0.018298,0.995135,39580.990990
-0.006789,-0.003803,-0.002373,-0.025476,0.060504,0.982776,39580.996006
0.001733,-0.003803,-0.003439,-0.009638,0.054461,0.971057,39581.000993
-0.004658,0.002589,-0.000243,-0.040582,0.008136,0.933429,39581.006003
0.003864,0.003654,-0.005569,-0.048914,-0.040845,0.995135,39581.010984
-0.002528,0.005785,-0.001308,-0.060449,-0.010999,0.985248,39581.015998
-0.003593,-0.001672,0.000822,-0.038202,0.038256,1.003650,39581.020984
-0.006789,0.001524,0.005083,0.007483,0.047686,1.039996,39581.025999
-0.002528,0.001524,0.002953,0.002173,0.003192,1.027545,39581.030982
-0.003593,0.004720,-0.007700,-0.043146,-0.048078,0.996234,39581.036007
-0.006789,-0.000607,0.004018,-0.071619,-0.023725,0.966937,39581.040987
-0.009985,-0.008064,0.001888,-0.058985,0.004931,0.990191,39581.046003
-0.009985,-0.001672,0.006149,0.006476,0.050708,0.995318,39581.050987
-0.011050,0.001524,0.001888,0.016455,0.028460,0.997058,39581.056004
-0.006789,0.000459,0.004018,-0.071436,-0.024915,0.951831,39581.061002
-0.001462,0.000459,-0.008765,-0.098627,-0.039289,0.903949,39581.066001
0.003864,0.003654,-0.000243,-0.043695,0.011432,0.954669,39581.071004
-0.004658,0.007915,0.004018,-0.020166,0.039996,1.010882,39581.075980
-0.006789,0.007915,0.006149,-0.046808,0.045855,0.983233,39581.081018
-0.006789,0.008981,-0.002373,-0.058893,0.002459,0.972705,39581.085974
-0.002528,0.013242,-0.003439,-0.015039,-0.031049,1.015185,39581.091017
-0.000397,0.006850,-0.005569,-0.009180,-0.005872,1.108661,39581.095980
0.010255,0.001524,-0.001308,-0.026209,0.036425,1.072955,39581.101017
0.009190,-0.002737,0.001888,-0.031336,0.029376,0.986987,39581.105975
-0.000397,-0.004868,0.000822,-0.022638,-0.025464,1.016559,39581.111016
-0.003593,0.000459,-0.002373,-0.021631,-0.076368,1.045032,39581.115979
-0.009985,-0.002737,-0.004504,-0.044794,-0.051740,1.010608,39581.121019
-0.020637,-0.011259,-0.001308,-0.050928,0.015551,0.991290,39581.125976
-0.016376,-0.009129,0.006149,-0.045984,0.042010,0.992572,39581.131015
-0.011050,-0.008064,0.001888,-0.014581,0.026263,1.005755,39581.135982
-0.011050,-0.002737,0.001888,-0.046900,-0.026197,0.962909,39581.141015
-0.013180,-0.005933,-0.002373,-0.088007,-0.006879,0.935809,39581.145974
-0.009985,0.000459,-0.000243,-0.084345,0.045306,0.972979,39581.151015
-0.000397,0.001524,-0.001308,-0.018152,0.067828,1.000720,39581.155974
0.003864,0.003654,0.006149,-0.006159,0.058581,1.012347,39581.161019
0.010255,0.002589,-0.001308,-0.064844,-0.000104,0.967212,39581.165977
0.009190,0.007915,0.000822,-0.081140,-0.039930,0.960254,39581.171025
0.009190,0.011111,-0.007700,-0.048914,0.000079,0.998523,39581.175977
0.001733,0.008981,0.001888,-0.005243,0.034228,1.052447,39581.181014
-0.002528,0.002589,0.001888,-0.021723,0.016650,1.032763,39581.185975
0.007060,0.005785,0.006149,-0.035547,-0.026746,1.012347,39581.190996
-0.000397,0.004720,0.004018,-0.042413,-0.047345,1.022967,39581.196014
0.003864,0.002589,-0.004504,-0.043329,-0.028394,1.049243,39581.200994
0.003864,0.001524,-0.004504,-0.037378,0.027819,1.052173,39581.206000
-0.006789,-0.000607,0.002953,-0.020807,0.052172,0.993121,39581.210988
-0.004658,0.000459,0.005083,-0.042413,0.010608,1.006854,39581.216000
-0.003593,-0.000607,-0.000243,-0.044428,-0.035535,1.007037,39581.219995
-0.003593,-0.000607,-0.000243,-0.037470,-0.037915,1.020770,39581.224971
0.001733,0.001524,0.000822,-0.037470,-0.037915,1.020770,39581.226014
0.002799,0.001524,-0.001308,-0.028955,0.034411,1.004474,39581.230003
0.002799,0.001524,-0.001308,-0.023554,0.039996,1.010516,39581.234964
0.004929,-0.002737,0.001888,-0.023554,0.039996,1.010516,39581.236015
0.010255,0.002589,-0.001308,-0.031976,0.023333,0.991656,39581.240000
0.008125,-0.002737,0.005083,-0.045069,-0.036908,0.965564,39581.244969
-0.002528,-0.000607,0.004018,-0.054224,-0.072889,0.993396,39581.250007
-0.006789,0.003654,-0.003439,-0.040766,-0.023725,1.037158,39581.254970
-0.008919,0.002589,-0.004504,-0.017328,0.020861,1.052264,39581.259995
-0.009985,0.000459,0.001888,-0.012201,0.022052,1.057300,39581.264973
-0.003593,-0.006998,0.002953,-0.045984,-0.012189,1.035419,39581.270004
-0.006789,-0.006998,0.001888,-0.053583,-0.039472,1.022784,39581.274975
-0.014246,-0.002737,-0.004504,-0.025018,-0.002576,1.040362,39581.280005
-0.009985,-0.009129,-0.005569,-0.039850,0.044574,1.057208,39581.284967
0.002799,-0.013390,-0.002373,-0.034998,0.048877,1.010699,39581.290005
-0.001462,-0.015520,-0.001308,-0.023371,0.009143,0.961627,39581.294971
-0.001462,-0.006998,0.008279,-0.036920,-0.046155,0.961444,39581.300004
0.003864,-0.006998,-0.000243,-0.066950,-0.029126,0.957141,39581.304970
0.002799,-0.000607,-0.008765,-0.067041,0.025439,0.915851,39581.310002
-0.008919,0.001524,0.000822,-0.025842,0.044940,0.905780,39581.314974
-0.006789,0.005785,0.001888,-0.023096,0.010882,0.947619,39581.319999
-0.003593,0.005785,0.005083,-0.047632,-0.034070,0.991748,39581.324996
-0.000397,0.010046,-0.001308,-0.063928,-0.038648,0.966662,39581.329977
-0.005724,0.008981,-0.003439,-0.043329,0.014270,1.002826,39581.334996
0.000668,0.012176,-0.000243,-0.002313,0.059771,1.071856,39581.339972
0.011321,0.003654,0.000822,0.011694,0.042559,1.052081,39581.344995
0.001733,0.000459,-0.000243,-0.038660,-0.002210,1.008136,39581.349977
-0.001462,-0.003803,-0.000243,-0.071161,-0.042035,1.005206,39581.354996
-0.002528,-0.004868,-0.001308,-0.037287,-0.034620,1.065356,39581.359974
-0.001462,0.000459,-0.002373,0.010596,0.018573,1.067828,39581.364994
-0.007854,-0.009129,0.001888,-0.007166,0.028643,1.016925,39581.369976
-0.005724,-0.013390,0.005083,-0.057977,-0.014936,0.959704,39581.374998
-0.008919,-0.010194,0.001888,-0.055597,-0.056867,0.921527,39581.379975
-0.017441,-0.004868,0.004018,-0.040857,-0.023633,0.953570,39581.384995
-0.018507,-0.003803,-0.002373,-0.043146,0.027179,0.988177,39581.389979
-0.004658,-0.006998,-0.003439,-0.031244,0.050891,0.958606,39581.395002
-0.004658,-0.001672,0.004018,-0.033167,0.024890,0.944415,39581.399979
-0.002528,-0.004868,0.000822,-0.043421,-0.022992,0.971148,39581.405000
0.002799,-0.000607,0.001888,-0.081232,-0.028577,0.996966,39581.409972
-0.003593,-0.001672,0.001888,-0.072809,0.035327,0.963000,39581.414996
-0.006789,0.005785,-0.001308,-0.026117,0.057483,0.983600,39581.419976
-0.000397,0.002589,-0.000243,-0.021173,0.023059,1.040362,39581.424993
0.003864,-0.005933,-0.000243,-0.065943,-0.062360,0.973895,39581.429973
-0.002528,-0.004868,0.005083,-0.054682,-0.015027,0.994311,39581.434994
-0.004658,-0.005933,0.001888,-0.037012,0.006305,1.015277,39581.439997
-0.006789,-0.003803,0.004018,-0.016046,0.031482,0.968036,39581.444970
-0.014246,-0.004868,-0.002373,-0.062464,-0.008802,0.908435,39581.450002
-0.021703,-0.009129,0.006149,-0.081140,-0.053022,0.925097,39581.454970
-0.009985,-0.003803,0.000822,-0.036188,0.006945,0.963458,39581.460005
-0.006789,-0.004868,0.005083,-0.025568,0.050616,0.972705,39581.464968
-0.005724,-0.001672,0.000822,-0.041315,0.074969,0.946612,39581.470006
0.000668,0.000459,-0.000243,-0.074182,0.039996,0.894885,39581.474970
0.001733,0.005785,-0.003439,-0.047815,-0.022901,0.930591,39581.480000
0.004929,0.004720,0.005083,-0.035272,-0.009259,0.983416,39581.484968
0.004929,0.002589,0.000822,-0.070886,0.023974,1.008227,39581.490004
0.009190,0.007915,0.007214,-0.035181,0.047778,0.973895,39581.494969
0.010255,0.011111,-0.002373,0.005102,0.001544,0.992755,39581.500010
0.003864,0.007915,-0.001308,-0.012659,-0.043775,1.061145,39581.504972
-0.001462,0.005785,-0.001308,-0.046350,-0.055219,1.010699,39581.510000
0.000668,-0.003803,0.009344,-0.048273,-0.011274,0.988727,39581.514969
-0.009985,-0.003803,0.006149,-0.011286,0.038806,1.025256,39581.520001
-0.008919,-0.001672,-0.005569,0.018286,0.013812,1.039996,39581.524972
-0.004658,-0.005933,0.006149,-0.025110,-0.035260,0.992114,39581.530005
-0.004658,-0.009129,0.000822,-0.061090,-0.040662,0.894702,39581.534970
-0.011050,-0.012325,0.004018,-0.069422,-0.008710,0.923724,39581.539999
-0.005724,-0.006998,0.000822,-0.034357,0.036700,0.949176,39581.544971
-0.002528,-0.003803,0.001888,-0.011835,0.054095,0.921344,39581.550004
-0.004658,-0.001672,0.005083,-0.046625,0.024066,0.912463,39581.554999
-0.004658,0.010046,0.000822,-0.085718,-0.036634,0.916858,39581.559975
0.004929,0.008981,-0.002373,-0.059992,-0.016950,0.956042,39581.564995
0.011321,0.006850,0.000822,-0.016596,0.032946,1.017291,39581.569974
0.002799,0.005785,0.006149,-0.033899,0.042559,1.001452,39581.574998
0.011321,0.008981,0.000822,-0.036096,0.013079,1.006488,39581.579976
0.003864,0.010046,-0.001308,-0.021814,-0.034803,1.007770,39581.584996
-0.006789,0.002589,-0.001308,-0.032251,-0.059247,1.058398,39581.589980
0.002799,0.000459,-0.001308,-0.043878,-0.015302,1.065173,39581.595004
0.002799,-0.006998,0.002953,-0.016504,0.023608,1.011615,39581.599978
-0.002528,-0.003803,0.008279,-0.013117,0.006396,0.994403,39581.605002
-0.008919,-0.004868,-0.000243,-0.030237,-0.044507,0.972064,39581.609975
-0.006789,-0.004868,-0.000243,-0.058710,-0.066297,0.954394,39581.614998
-0.014246,-0.004868,0.001888,-0.081781,-0.016858,0.906329,39581.619977
-0.014246,-0.004868,0.004018,-0.044245,0.038806,0.923816,39581.624996
-0.008919,0.000459,0.004018,-0.031336,0.039538,0.981494,39581.629983
-0.004658,0.007915,0.001888,-0.037836,0.010241,0.943683,39581.634996
0.001733,0.008981,-0.002373,-0.065210,-0.024549,0.939471,39581.639973
-0.005724,0.013242,-0.008765,-0.079492,0.001086,0.981494,39581.644999
0.008125,0.010046,0.000822,-0.035639,0.039355,1.047320,39581.649977
0.013451,0.011111,0.005083,0.006018,0.055560,1.061877,39581.655001
0.008125,0.005785,0.001888,-0.019434,0.008593,1.045398,39581.659976
0.007060,0.010046,-0.001308,-0.053125,-0.060437,1.056109,39581.664998
0.004929,0.005785,-0.000243,-0.040399,-0.059797,1.060596,39581.669979
0.002799,-0.001672,-0.001308,-0.027216,-0.010083,1.071307,39581.674980
-0.002528,-0.008064,0.000822,-0.008997,0.013171,1.054828,39581.680003
-0.006789,-0.005933,0.002953,-0.025476,-0.013471,1.026904,39581.684971
-0.002528,-0.004868,0.004018,-0.046350,-0.047162,0.971332,39581.689998
-0.011050,-0.005933,-0.001308,-0.059900,-0.059980,0.968951,39581.694976
-0.013180,-0.005933,-0.004504,-0.062097,-0.010633,0.985064,39581.700000
-0.001462,-0.000607,0.002953,-0.039392,0.039447,0.971240,39581.704971
-0.003593,-0.001672,0.008279,-0.018701,0.057483,0.944049,39581.710007
-0.007854,0.002589,-0.001308,-0.047540,0.005206,0.984057,39581.714971
0.001733,0.007915,-0.003439,-0.075830,-0.033155,0.954852,39581.720005
0.001733,0.008981,-0.000243,-0.048090,-0.011090,0.997058,39581.724971
0.007060,0.013242,0.000822,-0.026026,0.029010,1.032672,39581.730003
0.011321,0.004720,0.001888,-0.017236,0.031482,1.038074,39581.734976
0.012386,0.010046,0.000822,-0.028040,-0.017682,1.018664,39581.740007
0.001733,0.005785,0.001888,-0.031244,-0.070234,1.004107,39581.744975
-0.007854,0.007915,0.000822,-0.014581,-0.077100,1.090991,39581.750003
-0.001462,0.004720,0.001888,-0.013208,0.002185,1.099780,39581.754977
-0.005724,-0.010194,0.001888,-0.015314,0.033679,1.052722,39581.760011
-0.011050,-0.009129,0.001888,-0.023279,-0.008344,1.038165,39581.764973
-0.003593,-0.005933,0.008279,-0.026575,-0.047345,1.041919,39581.770002
-0.005724,-0.002737,-0.000243,-0.051019,-0.044690,1.015552,39581.774971
-0.007854,-0.005933,-0.008765,-0.063379,0.016650,0.976367,39581.780003
-0.005724,-0.004868,0.002953,-0.046167,0.056018,0.987536,39581.784970
-0.002528,-0.000607,0.002953,-0.012750,0.037616,0.985339,39581.790001
-0.000397,-0.002737,0.002953,-0.008173,-0.009717,0.995410,39581.794974
0.002799,0.006850,0.005083,-0.077387,-0.040662,0.962542,39581.800004
0.003864,0.003654,-0.007700,-0.076105,-0.002576,0.954211,39581.805005
0.003864,0.008981,0.000822,-0.041864,0.019671,1.029193,39581.809980
0.001733,0.007915,-0.007700,-0.001398,0.018847,1.040912,39581.814997
0.000668,0.005785,0.000822,-0.025293,-0.018598,1.047137,39581.819977
-0.001462,0.004720,0.005083,-0.060724,-0.060712,1.040362,39581.824996
-0.006789,-0.000607,-0.004504,-0.034815,-0.025190,1.063067,39581.829979
-0.005724,0.001524,-0.002373,-0.004511,0.020861,1.106738,39581.835003
-0.005724,-0.006998,0.000822,0.005560,0.047503,1.107379,39581.838993
-0.006789,-0.014455,0.005083,-0.049738,0.017382,1.029193,39581.843980
-0.000397,-0.011259,0.004018,-0.056330,-0.028669,1.007129,39581.848987
-0.001462,-0.009129,0.000822,-0.043146,-0.024915,1.005298,39581.853980
0.004929,-0.012325,-0.001308,-0.039026,0.007312,1.024524,39581.858990
-0.003593,-0.009129,-0.004504,-0.048639,0.049151,0.964099,39581.863975
-0.000397,-0.005933,0.001888,-0.064569,0.018115,0.893054,39581.868993
0.004929,0.003654,0.000822,-0.065027,-0.034711,0.937732,39581.874037
-0.000397,-0.000607,0.002953,-0.055048,-0.046155,0.953937,39581.878995
0.000668,0.006850,0.001888,-0.057245,-0.005414,0.995501,39581.883978
0.000668,0.008981,-0.006634,-0.035913,0.052264,1.008044,39581.888995
0.007060,0.008981,0.000822,-0.018244,0.042743,1.029834,39581.893984
0.007060,0.000459,-0.002373,-0.032526,0.003375,1.055469,39581.898989
0.003864,-0.002737,0.002953,-0.036646,-0.053571,1.043658,39581.903978
0.005994,0.001524,0.001888,-0.062006,-0.038007,1.063617,39581.909003
-0.001462,-0.005933,-0.004504,-0.014948,0.028827,1.074054,39581.913979
-0.002528,-0.008064,-0.000243,0.007666,0.016009,1.063983,39581.918995
0.000668,-0.013390,-0.000243,-0.035639,-0.004865,1.038440,39581.923996
-0.003593,-0.017651,0.001888,-0.050745,-0.037183,0.967029,39581.928970
-0.008919,-0.008064,0.006149,-0.045801,-0.051191,0.977740,39581.934005
-0.001462,-0.008064,0.000822,-0.033716,0.020953,0.997424,39581.938966
-0.003593,-0.011259,-0.003439,-0.030695,0.054461,0.954394,39581.944007
-0.006789,-0.004868,0.005083,-0.051111,0.034503,0.927295,39581.948961
-0.002528,-0.004868,0.002953,-0.066309,-0.017682,0.897265,39581.954009
0.002799,0.002589,0.000822,-0.043329,-0.034894,0.957873,39581.958962
0.007060,0.003654,0.001888,-0.039118,0.022235,0.999804,39581.964004
0.008125,-0.001672,-0.002373,-0.046533,0.053637,0.969958,39581.968965
0.009190,0.004720,-0.004504,-0.026850,0.044848,0.965198,39581.974006
0.007060,0.002589,-0.002373,-0.028681,-0.009717,0.981494,39581.978970
0.008125,-0.003803,0.002953,-0.033533,-0.063459,1.015826,39581.984007
0.003864,-0.001672,0.000822,-0.038019,-0.014844,0.997516,39581.988961
-0.003593,0.000459,0.004018,-0.037470,0.035235,0.996692,39581.994006
-0.000397,0.001524,-0.006634,-0.017053,0.029742,1.017840,39581.998969
-0.000397,-0.003803,-0.000243,-0.069605,-0.039197,0.987536,39582.004010
-0.002528,-0.005933,0.006149,-0.065027,-0.025098,0.979571,39582.008970
-0.001462,-0.003803,-0.001308,-0.038111,0.033953,1.009326,39582.014002
0.000668,0.000459,0.001888,-0.006433,0.062518,0.996966,39582.018969
0.005994,-0.002737,-0.002373,-0.030969,0.017474,0.934894,39582.024003
0.009190,-0.003803,-0.005569,-0.088922,-0.034528,0.907336,39582.028964
0.005994,-0.002737,-0.000243,-0.061456,-0.045697,0.904223,39582.034001
0.001733,-0.000607,0.005083,-0.031519,-0.005872,0.975268,39582.038969
0.003864,0.001524,0.007214,-0.016046,0.033404,0.982043,39582.043978
-0.000397,0.004720,-0.003439,-0.024652,0.023150,0.937823,39582.048995
0.005994,0.003654,-0.003439,-0.048914,-0.037732,0.955493,39582.053980
0.000668,0.006850,-0.004504,-0.035364,-0.057599,0.987536,39582.058991
-0.000397,0.002589,0.002953,-0.034265,-0.017499,1.025439,39582.063982
-0.002528,-0.002737,0.001888,-0.020166,0.037249,1.008410,39582.068993
-0.005724,-0.001672,0.002953,-0.023187,0.047412,0.988818,39582.073984
-0.001462,0.000459,-0.006634,-0.016596,0.013263,1.013629,39582.078994
-0.001462,-0.002737,-0.003439,-0.031519,-0.041761,1.015826,39582.083986
-0.003593,-0.010194,-0.002373,-0.043878,-0.033704,0.992297,39582.088994
0.008125,-0.012325,0.008279,-0.043512,0.021685,0.978381,39582.093980
0.001733,-0.005933,0.006149,-0.045526,0.036517,0.930865,39582.098993
0.003864,-0.006998,0.000822,-0.038568,0.004290,0.915301,39582.103979
-0.001462,-0.003803,-0.005569,-0.047815,-0.045880,0.900744,39582.108995
-0.008919,-0.005933,-0.003439,-0.065943,-0.043317,0.921985,39582.113982
0.001733,0.002589,0.006149,-0.062464,0.015735,0.940021,39582.118995
0.003864,0.004720,-0.002373,-0.032343,0.060138,0.946979,39582.123978
0.005994,0.002589,0.001888,-0.023279,0.046771,0.950732,39582.128995
0.007060,0.005785,-0.001308,-0.049829,-0.017865,0.948535,39582.133978
0.012386,0.008981,-0.003439,-0.049005,-0.034711,0.978930,39582.138994
0.008125,0.008981,0.001888,-0.046900,0.011432,1.005298,39582.143983
0.004929,-0.000607,0.000822,-0.042688,0.036700,1.022510,39582.148994
0.005994,0.003654,0.002953,-0.014673,0.035693,1.010425,39582.153982
0.009190,-0.000607,-0.000243,0.004004,-0.021802,1.011249,39582.158995
0.001733,0.001524,-0.003439,-0.026575,-0.066938,1.014636,39582.163980
0.000668,-0.003803,-0.001308,-0.081690,-0.033246,0.968493,39582.168972
0.003864,-0.006998,0.000822,-0.059259,0.025897,0.928393,39582.174008
-0.007854,-0.006998,0.009344,0.001257,0.033770,0.972522,39582.178972
-0.009985,-0.003803,0.005083,-0.012476,0.007586,0.988086,39582.184008
-0.001462,-0.004868,-0.004504,-0.066583,-0.029218,0.945331,39582.188964
-0.004658,-0.003803,-0.003439,-0.098169,-0.021527,0.888019,39582.194009
0.003864,-0.001672,0.007214,-0.064844,0.034686,0.944781,39582.198971
0.002799,0.001524,0.001888,-0.023462,0.056292,0.993030,39582.204009
0.005994,0.006850,0.004018,-0.042780,0.036151,0.962542,39582.208969
0.010255,0.005785,-0.001308,-0.062097,-0.018689,0.936541,39582.214009
0.013451,0.014307,-0.004504,-0.059168,-0.026746,0.977008,39582.218968
0.011321,0.010046,-0.004504,-0.034174,0.006579,1.045032,39582.224010
0.013451,0.011111,0.004018,-0.005976,0.030108,1.044024,39582.228964
0.010255,0.003654,0.002953,-0.028681,0.010608,1.012897,39582.234004
0.003864,0.008981,0.002953,-0.042963,-0.044141,1.019397,39582.238967
0.002799,0.006850,-0.004504,-0.028955,-0.078290,1.023334,39582.244005
-0.007854,0.003654,0.005083,-0.025293,-0.041669,1.058856,39582.248965
-0.008919,-0.000607,0.007214,-0.030878,0.019580,1.038074,39582.254011
-0.001462,-0.004868,0.004018,-0.011011,0.029101,1.014544,39582.258969
0.000668,0.001524,0.005083,-0.002680,-0.001111,1.006946,39582.264009
-0.000397,-0.002737,0.000822,-0.045709,-0.024091,0.948169,39582.268967
-0.001462,-0.004868,0.000822,-0.071161,-0.014478,0.968677,39582.274005
0.002799,-0.003803,0.000822,-0.053583,0.042376,0.946612,39582.278970
-0.000397,-0.001672,0.000822,-0.023828,0.051257,0.976092,39582.284004
0.001733,0.005785,0.006149,-0.026758,0.026721,1.008960,39582.288968
0.000668,0.002589,0.000822,-0.059900,-0.039563,0.980578,39582.294008
0.007060,0.007915,-0.001308,-0.053125,-0.036817,0.990100,39582.298968
0.005994,0.007915,-0.003439,-0.022730,0.019305,1.046954,39582.304001
0.005994,0.003654,-0.001308,-0.005152,0.039538,1.065814,39582.308971
0.007060,0.002589,0.001888,-0.013574,0.025805,1.039264,39582.313981
-0.004658,-0.000607,0.002953,-0.018427,-0.026014,1.014270,39582.318997
-0.003593,-0.001672,-0.004504,-0.027033,-0.077192,1.067096,39582.323981
0.001733,0.000459,0.000822,-0.037103,-0.027478,1.067645,39582.328996
0.000668,-0.006998,-0.006634,-0.050195,0.036151,1.010974,39582.333984
-0.003593,-0.004868,0.001888,-0.043329,0.033221,0.977374,39582.338998
-0.001462,-0.005933,0.008279,-0.035272,-0.008435,0.987903,39582.343985
-0.004658,0.004720,0.004018,-0.031702,-0.036176,1.006305,39582.348993
0.004929,0.001524,-0.001308,-0.068598,-0.007245,0.983691,39582.353985
0.008125,0.001524,-0.007700,-0.078943,0.052447,0.962451,39582.358998
0.008125,0.010046,-0.003439,-0.020441,0.063617,0.988360,39582.363980
0.010255,0.004720,-0.000243,-0.010278,0.009143,1.001269,39582.368996
0.010255,0.005785,0.004018,-0.050745,-0.055768,0.992938,39582.373981
0.007060,0.007915,-0.000243,-0.084528,-0.051007,0.964923,39582.378993
0.007060,0.008981,-0.006634,-0.053583,-0.013562,1.025714,39582.383985
0.009190,0.007915,0.001888,0.004187,0.007586,1.070666,39582.388996
0.002799,0.001524,-0.000243,0.016089,-0.000745,1.082019,39582.393980
0.003864,0.001524,0.002953,-0.047815,-0.057965,1.057117,39582.398997
0.005994,-0.005933,0.006149,-0.052851,-0.058698,1.013812,39582.403985
-0.004658,-0.001672,-0.000243,-0.020349,-0.017865,1.060504,39582.408997
-0.002528,-0.005933,-0.005569,-0.005884,0.018390,1.065539,39582.413982
-0.004658,-0.014455,0.001888,-0.013025,0.015735,1.033313,39582.418993
-0.004658,-0.009129,0.008279,-0.066858,-0.027661,0.953021,39582.423977
-0.001462,-0.006998,0.001888,-0.065210,-0.054670,0.947345,39582.428998
-0.002528,-0.000607,-0.004504,-0.054498,-0.022351,0.983508,39582.433979
-0.002528,0.000459,-0.001308,-0.055414,0.036792,0.961718,39582.438972
-0.002528,0.000459,-0.003439,-0.047174,0.056201,0.934802,39582.444009
0.004929,0.010046,0.000822,-0.051935,0.016467,0.961078,39582.448006
0.004929,0.010046,0.000822,-0.055506,-0.022260,0.983233,39582.452969
0.012386,0.008981,0.002953,-0.055506,-0.022260,0.983233,39582.454018
0.007060,0.005785,-0.000243,-0.047540,-0.027661,1.014361,39582.458010
0.010255,0.011111,-0.004504,-0.035547,0.017657,1.047870,39582.462973
0.012386,0.012176,-0.003439,-0.018976,0.039538,1.046222,39582.468008
0.012386,0.007915,-0.003439,-0.010736,0.005206,1.046771,39582.472974
0.009190,-0.000607,0.000822,-0.037012,-0.052289,1.037890,39582.478022
0.007060,-0.000607,0.006149,-0.062372,-0.068402,1.036883,39582.482973
0.005994,0.002589,-0.003439,-0.034632,-0.017591,1.049243,39582.488009
0.001733,-0.003803,-0.003439,0.012884,0.013995,1.061419,39582.492975
-0.008919,-0.004868,-0.003439,-0.000208,0.006854,1.034686,39582.498008
-0.002528,-0.010194,-0.000243,-0.036920,-0.034070,0.977740,39582.502975
-0.000397,-0.003803,0.001888,-0.071985,-0.068677,0.942035,39582.508009
-0.001462,-0.006998,0.004018,-0.042780,-0.014386,0.975177,39582.512973
-0.001462,-0.005933,-0.003439,-0.014673,0.025073,1.025897,39582.518007
-0.002528,-0.002737,-0.003439,-0.017969,0.054919,0.964099,39582.522976
-0.001462,-0.003803,-0.000243,-0.044153,0.014178,0.944232,39582.528009
0.008125,0.003654,0.002953,-0.061731,-0.038373,0.973163,39582.532975
0.011321,-0.000607,-0.004504,-0.047724,-0.013196,1.017108,39582.538009
0.009190,0.000459,-0.003439,-0.038294,0.011523,1.032947,39582.542973
0.010255,0.006850,-0.003439,-0.008173,0.035510,1.021869,39582.548012
0.002799,-0.001672,-0.006634,-0.009821,-0.000745,1.021777,39582.552974
0.003864,-0.000607,0.001888,-0.035455,-0.059888,1.041644,39582.558008
0.003864,-0.003803,0.002953,-0.069513,-0.062360,1.016376,39582.562982
-0.003593,-0.006998,0.001888,-0.006525,0.025256,1.055377,39582.568009
-0.002528,-0.002737,-0.002373,-0.027765,0.023150,1.004657,39582.573000
-0.005724,-0.012325,-0.002373,-0.070429,-0.018323,0.976092,39582.577982
-0.006789,-0.012325,-0.001308,-0.071710,-0.046430,0.933154,39582.583001
-0.005724,-0.012325,0.002953,-0.046625,-0.004956,0.976001,39582.587984
0.001733,-0.002737,0.002953,-0.020075,0.062243,0.963458,39582.593001
0.002799,-0.005933,-0.005569,-0.035364,0.055102,0.920611,39582.597981
0.002799,0.000459,-0.002373,-0.076654,0.016375,0.884173,39582.603001
0.003864,-0.000607,-0.002373,-0.057611,-0.017224,0.911456,39582.607985
0.003864,0.001524,-0.000243,-0.042047,-0.008985,0.980945,39582.613001
0.008125,0.005785,0.002953,-0.027399,0.044757,1.009143,39582.617984
0.009190,0.001524,0.000822,-0.035364,0.056475,0.982043,39582.623003
0.017712,0.008981,-0.002373,-0.030603,0.012439,0.982593,39582.627985
0.012386,0.007915,-0.003439,-0.008447,-0.048444,1.019031,39582.632997
0.011321,0.000459,-0.003439,-0.051477,-0.044049,1.011706,39582.637984
0.007060,-0.000607,0.002953,-0.068231,0.029742,0.989917,39582.642997
0.002799,-0.003803,0.004018,-0.013025,0.040912,0.998065,39582.647981
0.001733,-0.003803,-0.001308,0.016546,0.013079,1.048144,39582.653002
0.000668,0.002589,-0.002373,-0.037378,-0.019788,1.002460,39582.657985
0.003864,-0.008064,-0.005569,-0.063654,-0.044507,0.946246,39582.663001
0.002799,-0.005933,-0.000243,-0.070703,0.002551,0.953937,39582.667982
0.003864,-0.000607,0.005083,-0.031336,0.052447,0.960071,39582.673012
-0.001462,-0.003803,-0.001308,-0.007990,0.043200,0.982318,39582.677984
0.001733,0.002589,-0.001308,-0.051752,0.003650,0.915301,39582.682998
-0.003593,0.002589,-0.000243,-0.065668,-0.017133,0.938739,39582.688004
0.005994,0.005785,-0.004504,-0.042047,0.006488,1.001636,39582.692972
0.014516,0.005785,0.002953,-0.015039,0.037616,1.043200,39582.698008
0.012386,-0.001672,0.001888,-0.002039,0.049701,1.000445,39582.702976
0.009190,0.001524,-0.002373,-0.024469,0.003466,0.976458,39582.708010
0.007060,0.006850,-0.004504,-0.054590,-0.051099,0.983691,39582.712978
0.003864,-0.001672,-0.006634,-0.029962,-0.036634,1.000079,39582.718010
0.001733,-0.002737,0.002953,-0.029230,0.021411,1.021960,39582.722975
-0.000397,-0.009129,0.000822,-0.018518,0.030749,1.002093,39582.728014
-0.003593,-0.010194,-0.000243,-0.019434,0.003833,0.978015,39582.732976
-0.006789,-0.003803,-0.004504,-0.044519,-0.013471,0.940753,39582.738013
-0.007854,-0.005933,-0.003439,-0.065485,-0.029218,0.946521,39582.742974
-0.001462,-0.012325,-0.001308,-0.054865,0.020770,0.934436,39582.748009
0.001733,-0.009129,0.002953,-0.013574,0.058947,0.943042,39582.752970
-0.000397,-0.004868,0.000822,-0.020166,0.038440,0.925006,39582.758013
0.009190,0.002589,0.001888,-0.071619,-0.004224,0.919238,39582.762982
0.009190,0.002589,-0.006634,-0.099451,-0.025281,0.876391,39582.768010
0.004929,-0.000607,-0.007700,-0.036371,-0.000379,0.939837,39582.772978
-0.002528,0.011111,-0.000243,-0.027307,0.036242,1.000812,39582.778011
0.007060,0.006850,0.001888,-0.039942,0.064898,0.972339,39582.782975
0.005994,0.006850,0.000822,-0.063379,0.002642,0.959613,39582.788011
0.008125,0.006850,-0.001308,-0.057977,-0.037915,0.962176,39582.792973
0.003864,0.014307,-0.001308,-0.026941,-0.024274,1.056476,39582.798011
0.002799,0.007915,-0.003439,-0.014398,0.034045,1.052356,39582.802972
-0.001462,0.001524,-0.000243,-0.031153,0.057116,1.000354,39582.808012
0.002799,-0.000607,0.004018,-0.051843,0.037799,0.978564,39582.812977
0.000668,0.000459,-0.005569,-0.023462,-0.042310,1.042834,39582.818012
0.002799,-0.000607,-0.000243,-0.024927,-0.046888,1.008868,39582.822997
-0.000397,-0.002737,-0.002373,-0.043421,0.015185,0.982776,39582.827991
0.009190,-0.004868,0.004018,-0.049555,0.041186,0.938373,39582.833001
0.009190,-0.002737,0.004018,-0.025659,0.016467,0.922809,39582.837987
-0.000397,-0.000607,-0.000243,-0.018244,-0.026746,0.936450,39582.843004
-0.007854,0.005785,-0.000243,-0.056604,-0.045331,0.954120,39582.847985
-0.006789,-0.001672,0.000822,-0.076196,-0.004316,0.969592,39582.853001
0.003864,0.004720,-0.003439,-0.036737,0.057391,0.971698,39582.857986
0.003864,0.005785,0.007214,-0.004511,0.057849,1.012622,39582.863000
-0.002528,0.000459,0.004018,-0.038111,-0.012738,1.015368,39582.867985
0.003864,0.007915,-0.000243,-0.072626,-0.050733,0.979663,39582.873003
-0.001462,0.010046,-0.003439,-0.068964,0.005938,0.999713,39582.877983
-0.000397,0.002589,0.000822,-0.019342,0.037066,1.062701,39582.882986
0.000668,0.003654,0.004018,-0.007898,0.042651,1.071399,39582.887980
0.003864,-0.002737,0.004018,-0.025568,0.017749,1.017200,39582.893004
-0.002528,-0.000607,0.005083,-0.054224,-0.052015,1.007312,39582.897988
0.002799,0.003654,-0.005569,-0.066675,-0.044141,1.020495,39582.903001
-0.001462,-0.004868,-0.002373,-0.046533,0.025256,1.017016,39582.907986
-0.008919,-0.004868,0.000822,-0.026575,0.032855,0.978198,39582.913004
-0.006789,-0.003803,0.006149,-0.016504,0.006121,0.979754,39582.917983
-0.003593,-0.000607,0.002953,-0.046900,-0.043683,0.969958,39582.923004
0.000668,0.002589,-0.003439,-0.060266,-0.038556,0.953845,39582.927982
-0.005724,0.003654,-0.003439,-0.081140,0.001178,0.956408,39582.933009
-0.003593,0.004720,-0.001308,-0.035730,0.051715,0.974353,39582.937984
-0.001462,0.006850,0.004018,-0.006433,0.047595,1.006030,39582.942996
-0.003593,0.004720,0.008279,-0.036920,-0.005780,0.993396,39582.948010
-0.002528,0.006850,0.001888,-0.051019,-0.037000,1.011798,39582.952974
0.004929,0.007915,-0.002373,-0.054498,-0.010358,1.031482,39582.958018
0.000668,0.005785,-0.004504,-0.007440,0.034320,1.061603,39582.962976
0.000668,0.008981,-0.002373,-0.004328,0.036609,1.044208,39582.968012
-0.002528,0.000459,0.005083,-0.045343,0.001727,1.029284,39582.972978
-0.006789,0.001524,0.004018,-0.048822,-0.039838,1.008227,39582.978017
-0.008919,0.004720,0.000822,-0.025659,-0.035352,1.052173,39582.982977
-0.005724,0.002589,0.000822,-0.014032,0.029376,1.085681,39582.988009
-0.005724,-0.002737,-0.007700,-0.016413,0.041644,1.038440,39582.992975
-0.002528,-0.000607,0.008279,-0.033258,0.016467,0.988543,39582.998013
-0.001462,-0.001672,0.001888,-0.037378,-0.032422,0.974444,39583.002977
-0.011050,0.001524,0.001888,-0.045069,-0.048627,1.005847,39583.008013
-0.006789,0.004720,-0.002373,-0.045709,0.015368,1.025073,39583.012978
-0.006789,0.005785,-0.007700,-0.026392,0.054095,1.003284,39583.018013
-0.004658,0.005785,-0.000243,-0.004236,0.032397,1.021045,39583.022977
0.001733,0.003654,0.004018,-0.028314,-0.017316,1.027453,39583.028015
0.001733,0.002589,0.002953,-0.060724,-0.038099,0.998431,39583.032978
-0.002528,0.004720,0.002953,-0.059259,-0.009809,1.023883,39583.038008
-0.006789,0.004720,-0.006634,-0.037378,0.024798,1.071216,39583.042975
-0.004658,0.004720,0.004018,-0.001856,-0.011182,1.077624,39583.048011
-0.008919,-0.006998,-0.001308,-0.058252,-0.046155,1.058856,39583.052981
-0.004658,-0.006998,0.002953,-0.047724,-0.016034,1.047503,39583.058012
-0.001462,-0.006998,-0.000243,-0.016413,0.026538,1.053454,39583.063003
-0.006789,-0.006998,-0.002373,-0.016413,0.026538,1.053454,39583.066999
-0.006789,-0.006998,-0.002373,0.001257,0.035144,1.039538,39583.071978
-0.014246,-0.009129,-0.001308,-0.047540,0.004107,0.974261,39583.073008
-0.011050,-0.014455,0.004018,-0.047540,0.004107,0.974261,39583.076999
-0.009985,-0.010194,0.004018,-0.082605,-0.038739,0.931415,39583.081984
-0.013180,-0.010194,0.002953,-0.040857,-0.035627,0.966845,39583.087002
-0.001462,0.000459,0.002953,-0.041315,0.015094,1.025531,39583.091982
-0.008919,0.001524,-0.002373,-0.045069,0.081836,0.980212,39583.097004
-0.005724,0.000459,0.005083,-0.071802,0.052264,0.914935,39583.101978
-0.004658,0.006850,-0.002373,-0.070795,-0.003034,0.959979,39583.107002
-0.000397,0.004720,0.004018,-0.051019,-0.010175,1.020953,39583.111982
0.002799,0.004720,0.004018,-0.053125,0.007312,1.049518,39583.117000
0.008125,0.008981,-0.003439,-0.038934,0.059954,1.036700,39583.121979
-0.003593,0.003654,-0.002373,-0.031336,0.045672,1.011706,39583.127001
0.005994,0.004720,-0.001308,-0.043237,-0.019788,1.051990,39583.131978
-0.005724,-0.002737,0.000822,-0.052301,-0.042218,1.012805,39583.137006
-0.005724,0.002589,0.004018,-0.033808,0.036975,1.049151,39583.141984
-0.004658,0.000459,0.000822,-0.007349,0.038714,1.035144,39583.146999
-0.003593,-0.000607,-0.003439,-0.022363,0.004840,1.011706,39583.151980
-0.007854,-0.004868,-0.000243,-0.044336,-0.037275,0.947986,39583.156999
-0.004658,-0.005933,-0.000243,-0.056696,-0.027295,0.970874,39583.161976
-0.000397,-0.001672,0.005083,-0.032617,0.048785,0.973895,39583.167001
-0.003593,-0.001672,0.002953,-0.023920,0.067828,0.961627,39583.171975
-0.002528,0.000459,-0.002373,-0.026117,0.047412,0.986438,39583.177001
0.001733,0.001524,-0.001308,-0.033899,-0.013654,0.971972,39583.181981
0.005994,0.003654,-0.000243,-0.037561,-0.018964,0.994677,39583.187003
0.002799,0.000459,0.000822,-0.049005,0.031115,1.037799,39583.191979
0.005994,0.005785,0.004018,-0.045984,0.050982,1.016284,39583.196974
0.011321,-0.001672,-0.003439,0.004187,0.034503,1.044574,39583.202005
0.002799,0.003654,-0.000243,-0.008905,-0.028669,1.037982,39583.206974
-0.000397,-0.000607,-0.002373,-0.040949,-0.055585,1.045215,39583.212003
-0.004658,-0.009129,0.001888,-0.061090,-0.020520,1.024066,39583.216974
-0.004658,-0.012325,0.007214,-0.035272,0.020953,0.998614,39583.222005
-0.004658,-0.010194,0.001888,-0.002039,0.032580,1.015094,39583.226977
-0.006789,-0.008064,-0.002373,-0.033441,-0.000837,0.959796,39583.232008
-0.006789,-0.009129,-0.004504,-0.067224,-0.032972,0.934710,39583.236974
-0.008919,-0.005933,0.000822,-0.080499,0.001910,0.901294,39583.242007
-0.008919,-0.011259,0.000822,-0.032800,0.057116,0.976733,39583.246977
0.000668,-0.003803,0.006149,-0.020807,0.062426,0.968402,39583.252009
0.004929,-0.000607,0.001888,-0.050470,0.051532,0.884356,39583.256971
0.008125,-0.000607,-0.002373,-0.105951,-0.006787,0.892688,39583.262009
0.008125,0.008981,-0.003439,-0.056879,-0.018415,0.913287,39583.266977
0.005994,0.004720,-0.004504,-0.009638,0.035693,1.018207,39583.272006
0.010255,0.004720,0.007214,-0.017236,0.068560,0.991015,39583.276978
0.005994,0.005785,-0.000243,-0.033075,0.046588,0.955310,39583.282004
0.015582,0.004720,-0.003439,-0.041864,-0.027570,0.976733,39583.286972
0.011321,0.004720,-0.000243,-0.025842,-0.059613,0.993304,39583.292008
0.009190,-0.001672,-0.002373,-0.040949,-0.018506,1.008410,39583.296977
0.002799,-0.000607,0.005083,-0.046533,0.034777,0.994037,39583.302006
-0.006789,0.001524,0.006149,-0.042871,0.045031,0.951007,39583.306978
-0.001462,-0.003803,0.001888,-0.002863,0.007495,1.006305,39583.311984
-0.002528,0.000459,-0.006634,-0.024195,-0.046064,1.007495,39583.316975
0.008125,-0.003803,0.001888,-0.069696,-0.010999,0.952380,39583.321985
0.009190,-0.002737,0.000822,-0.084162,0.057391,0.912921,39583.327006
0.010255,0.000459,0.001888,-0.032160,0.063800,0.925097,39583.331980
0.007060,0.004720,0.001888,-0.021723,0.020678,0.984057,39583.337005
0.010255,0.008981,-0.001308,-0.031153,-0.026197,0.946063,39583.341979
0.007060,0.005785,-0.003439,-0.059351,-0.036817,0.976184,39583.347001
0.015582,0.011111,0.000822,-0.043421,0.018847,0.971606,39583.351977
0.017712,0.003654,0.001888,0.006384,0.034228,1.030292,39583.357003
0.017712,0.005785,0.000822,-0.015314,-0.000287,0.992663,39583.361980
0.008125,0.001524,0.002953,-0.029779,-0.051465,0.989551,39583.367001
0.004929,0.007915,-0.006634,-0.052484,-0.067853,1.023150,39583.371979
-0.000397,-0.004868,-0.000243,-0.033075,0.006121,1.028186,39583.377002
-0.001462,-0.008064,-0.000243,-0.008539,0.038989,1.051623,39583.381981
0.001733,-0.010194,0.001888,0.004370,0.031482,1.026538,39583.387004
0.002799,-0.009129,0.002953,-0.027948,-0.013654,0.967578,39583.391980
-0.001462,-0.011259,-0.000243,-0.068323,-0.048993,0.924731,39583.396999
0.000668,-0.009129,-0.000243,-0.091028,-0.013929,0.928027,39583.401981
-0.000397,-0.010194,-0.000243,-0.049005,0.041461,0.917956,39583.407003
0.000668,-0.004868,0.001888,0.007574,0.040545,0.941943,39583.411975
0.004929,-0.001672,0.006149,-0.036920,0.018573,0.919604,39583.417001
0.009190,-0.000607,-0.000243,-0.097162,-0.028943,0.884173,39583.421978
0.014516,0.007915,-0.008765,-0.100000,-0.008161,0.880511,39583.427004
0.005994,0.010046,-0.006634,-0.041956,0.034137,0.970233,39583.431982
0.007060,0.013242,0.001888,-0.012476,0.056292,1.023334,39583.437003
0.007060,0.010046,0.005083,-0.045435,0.030841,0.994311,39583.441980
0.012386,0.016438,0.004018,-0.086267,-0.032422,0.979297,39583.446978
0.016647,0.011111,-0.001308,-0.058252,-0.032239,1.038898,39583.452008
0.015582,0.016438,-0.008765,-0.026026,-0.003034,1.105548,39583.456978
0.023039,0.006850,-0.004504,0.000159,0.032489,1.059314,39583.462008
0.011321,-0.001672,0.001888,-0.008081,0.016009,1.023150,39583.466983
0.011321,0.000459,0.005083,-0.049921,-0.046338,0.981402,39583.472011
0.010255,0.001524,-0.003439,-0.034815,-0.080945,0.984881,39583.476977
0.000668,0.001524,-0.001308,-0.039850,-0.046796,0.996600,39583.482010
-0.006789,-0.005933,0.001888,-0.041864,0.007312,0.952472,39583.486978
-0.006789,0.001524,0.000822,-0.035639,0.013720,0.921893,39583.492009
-0.011050,0.003654,0.004018,-0.031336,-0.016492,0.939197,39583.496977
-0.011050,0.008981,0.001888,-0.053858,-0.045057,0.948352,39583.502006
-0.002528,0.003654,-0.000243,-0.057794,-0.008710,0.974719,39583.506978
-0.001462,0.011111,-0.006634,-0.041498,0.055377,1.012347,39583.512006
0.004929,0.000459,0.000822,0.000250,0.069201,1.015918,39583.516976
0.011321,0.005785,0.000822,0.002814,0.025348,1.060779,39583.522008
0.012386,0.000459,-0.000243,-0.048456,-0.036359,1.021777,39583.526978
0.002799,0.001524,-0.000243,-0.063379,-0.053754,1.014087,39583.532012
0.010255,0.002589,-0.003439,-0.043146,-0.018415,1.056750,39583.536977
-0.002528,0.000459,-0.005569,-0.004602,0.000903,1.074878,39583.542011
-0.007854,-0.008064,0.002953,-0.010736,-0.020887,1.037066,39583.546976
-0.011050,-0.003803,0.008279,-0.047357,-0.063184,0.991839,39583.552010
-0.009985,-0.004868,0.004018,-0.054773,-0.067762,0.977374,39583.556975
-0.009985,-0.005933,0.000822,-0.042871,-0.008893,1.012347,39583.561980
-0.011050,0.002589,-0.001308,-0.019068,0.047503,0.996142,39583.567005
-0.017441,-0.002737,-0.000243,-0.029962,0.054187,0.952289,39583.571980
-0.005724,-0.001672,0.004018,-0.058893,0.000262,0.956866,39583.577001
0.001733,0.004720,0.004018,-0.070795,-0.028485,0.933886,39583.581983
0.005994,0.007915,-0.000243,-0.064111,-0.006147,0.955768,39583.586998
0.012386,0.011111,-0.003439,-0.051477,0.034320,0.975818,39583.591985
0.005994,0.014307,-0.007700,-0.022821,0.035418,0.981402,39583.597005
0.002799,0.015372,0.000822,-0.022272,-0.012738,0.992480,39583.601986
0.008125,0.010046,0.001888,-0.048639,-0.069684,1.010882,39583.607002
0.008125,0.007915,0.001888,-0.053400,-0.064557,1.037524,39583.611980
0.000668,0.005785,-0.002373,0.020025,-0.003949,1.089892,39583.617008
-0.008919,0.006850,-0.005569,-0.008447,-0.020520,1.074237,39583.621984
-0.016376,-0.002737,-0.001308,-0.052942,-0.065290,1.036517,39583.627004
-0.016376,-0.012325,0.006149,-0.062738,-0.076825,1.012530,39583.631987
-0.018507,-0.010194,0.004018,-0.002405,-0.012281,1.059039,39583.637003
-0.015311,-0.008064,0.000822,-0.001947,0.021502,1.060321,39583.641981
-0.017441,-0.005933,0.001888,-0.050653,0.036425,0.976092,39583.647005
-0.014246,-0.009129,-0.006634,-0.085809,-0.007520,0.883166,39583.651982
-0.008919,-0.008064,-0.001308,-0.062464,-0.048352,0.936908,39583.657003
-0.011050,0.000459,0.005083,-0.062464,-0.048352,0.936908,39583.661028
-0.011050,0.000459,0.005083,-0.054956,-0.014386,1.000354,39583.665993
-0.004658,0.003654,0.000822,-0.054407,0.041003,0.995593,39583.667020
-0.002528,0.005785,0.002953,-0.054407,0.041003,0.995593,39583.671029
-0.002528,0.005785,0.002953,-0.058618,0.042010,0.991656,39583.675992
-0.002528,0.014307,-0.004504,-0.058985,-0.004682,1.008868,39583.677017
-0.002528,0.008981,-0.000243,-0.058985,-0.004682,1.008868,39583.681031
-0.000397,0.008981,-0.003439,-0.037653,-0.064923,1.085223,39583.685991
0.000668,0.004720,0.001888,-0.031793,-0.048169,1.072864,39583.691002
-0.005724,0.005785,-0.003439,-0.030969,-0.006971,1.097949,39583.696028
-0.003593,-0.000607,-0.001308,-0.002130,0.020404,1.087420,39583.701009
-0.012115,-0.004868,-0.005569,-0.026300,-0.091932,1.047503,39583.706017
-0.013180,-0.011259,-0.000243,-0.039026,-0.081586,1.026355,39583.711007
-0.022768,-0.015520,-0.001308,-0.052667,-0.031964,1.012530,39583.716021
-0.019572,-0.013390,0.001888,-0.031702,0.020404,0.981952,39583.721004
-0.023833,-0.010194,-0.001308,-0.044519,0.014087,0.951373,39583.726021
-0.024898,-0.008064,-0.000243,-0.078577,-0.013013,0.924640,39583.731002
-0.019572,0.000459,-0.000243,-0.072260,-0.023908,0.931872,39583.736020
-0.015311,-0.000607,0.002953,-0.060632,0.027087,0.980487,39583.741010
-0.008919,0.002589,0.001888,-0.044153,0.079913,1.025897,39583.746025
-0.001462,0.007915,-0.002373,-0.025110,0.061053,1.006396,39583.751006
0.002799,0.006850,-0.004504,-0.021723,0.001910,1.028552,39583.756024
0.000668,0.010046,-0.004504,-0.042413,-0.047895,1.038714,39583.761007
0.003864,0.005785,-0.004504,-0.061731,-0.036725,1.054461,39583.766019
0.004929,0.000459,0.002953,-0.041681,-0.003766,1.045856,39583.771005
-0.006789,0.000459,0.004018,0.011694,-0.002851,1.034686,39583.776017
-0.016376,-0.001672,-0.003439,0.004370,-0.046430,1.083026,39583.781007
-0.017441,0.000459,-0.001308,-0.047266,-0.080579,1.019763,39583.786020
-0.016376,-0.006998,-0.004504,-0.055872,-0.063001,0.987445,39583.791029
-0.027029,-0.008064,0.006149,-0.038934,0.002551,1.007953,39583.796026
-0.027029,-0.009129,0.001888,-0.012659,0.044665,1.006579,39583.801027
-0.021703,-0.005933,0.007214,-0.025476,0.047870,0.989276,39583.805998
-0.021703,-0.000607,-0.004504,-0.059992,0.018939,0.937640,39583.811029
-0.017441,-0.005933,-0.001308,-0.081415,-0.009076,0.972339,39583.815994
-0.004658,-0.001672,-0.006634,-0.058252,0.040820,1.015552,39583.821031
0.002799,0.001524,0.000822,-0.026483,0.072314,1.008044,39583.825989
0.002799,0.003654,0.004018,-0.035364,0.053729,0.995776,39583.831032
0.007060,-0.000607,-0.010896,-0.049555,-0.005323,0.986804,39583.835994
0.000668,0.002589,-0.006634,-0.044336,-0.072065,0.994403,39583.841037
-0.007854,0.003654,-0.004504,-0.026026,-0.046247,1.037250,39583.845995
-0.006789,-0.001672,0.006149,-0.032434,-0.002027,1.067645,39583.851028
-0.007854,-0.005933,0.002953,-0.027033,0.008410,1.035876,39583.855996
-0.009985,-0.009129,-0.006634,-0.023096,-0.025464,1.010974,39583.861032
-0.018507,-0.009129,-0.000243,-0.033716,-0.060895,1.023700,39583.865994
-0.028094,-0.011259,-0.002373,-0.066034,-0.029126,1.026629,39583.871035
-0.025964,-0.017651,0.001888,-0.085626,0.041644,0.998614,39583.875992
-0.017441,-0.010194,0.001888,-0.048639,0.084033,0.973254,39583.881034
-0.016376,-0.008064,0.004018,-0.024103,0.064624,0.968219,39583.885995
-0.006789,-0.003803,-0.004504,-0.061914,0.006121,0.949542,39583.891019
0.000668,-0.002737,-0.005569,-0.091028,0.005023,0.889117,39583.895996
-0.000397,-0.001672,-0.002373,-0.087274,0.051989,0.911548,39583.901034
0.002799,0.002589,0.004018,-0.041681,0.069934,0.959247,39583.905997
0.001733,0.004720,0.001888,-0.008631,0.043841,0.971789,39583.911033
0.004929,0.012176,-0.002373,-0.030512,-0.002027,0.961261,39583.915992
0.004929,0.011111,-0.005569,-0.060266,-0.041394,0.971423,39583.921029
0.004929,0.011111,-0.004504,-0.050836,-0.010175,1.030017,39583.925994
0.007060,0.004720,-0.001308,-0.002680,0.039721,1.055926,39583.931029
-0.005724,0.000459,0.004018,0.017920,0.032946,1.038898,39583.936028
-0.009985,0.002589,0.004018,-0.026483,-0.004682,1.026904,39583.941008
-0.004658,-0.002737,-0.006634,-0.027399,-0.039197,1.023517,39583.946021
-0.005724,-0.000607,-0.002373,-0.013300,-0.018140,1.008502,39583.951007
-0.007854,-0.013390,-0.003439,-0.006799,0.034320,1.020495,39583.956021
-0.002528,-0.014455,0.006149,-0.020349,0.055926,0.985980,39583.961011
-0.005724,-0.009129,0.005083,-0.036920,0.033221,0.913745,39583.966018
-0.009985,-0.002737,0.002953,-0.056970,-0.012098,0.914386,39583.971005
-0.008919,-0.001672,-0.003439,-0.070246,-0.007703,0.929034,39583.976018
-0.005724,0.000459,-0.004504,-0.044977,0.052905,0.969958,39583.981009
0.001733,0.003654,-0.003439,-0.027216,0.086139,0.963183,39583.986019
0.003864,0.000459,0.006149,-0.030603,0.066546,0.975085,39583.991009
0.010255,0.007915,-0.000243,-0.066950,0.008502,0.983966,39583.996028
0.000668,0.007915,-0.004504,-0.045069,-0.016950,0.982409,39584.001009
-0.003593,0.006850,-0.002373,-0.028223,0.016650,1.046863,39584.006019
0.000668,0.001524,-0.003439,-0.019251,0.060321,1.063434,39584.011005
0.010255,-0.005933,0.004018,-0.011743,0.046222,1.060687,39584.016021
0.003864,-0.008064,0.000822,-0.029871,-0.014478,1.019763,39584.021004
0.003864,-0.008064,-0.001308,-0.036005,-0.045880,1.001636,39584.026022
-0.005724,-0.002737,-0.005569,-0.067407,-0.016126,0.996692,39584.031007
-0.008919,-0.008064,-0.001308,-0.044794,0.053454,0.969684,39584.036025
-0.015311,-0.009129,-0.002373,-0.031061,0.053088,0.938556,39584.041019
-0.013180,-0.009129,0.009344,-0.032343,0.032397,0.951281,39584.046022
-0.002528,-0.004868,0.001888,-0.060999,-0.011365,0.928943,39584.051023
-0.001462,-0.000607,0.001888,-0.063928,0.008868,0.922809,39584.056003
0.005994,0.004720,-0.004504,-0.063196,0.079730,0.938281,39584.061033
0.015582,0.000459,-0.005569,-0.036646,0.095477,0.927844,39584.065993
0.014516,0.005785,0.001888,-0.012934,0.074054,0.961993,39584.071036
0.007060,0.002589,0.005083,-0.032892,0.017291,0.944873,39584.075997
0.012386,0.006850,-0.002373,-0.066217,-0.012372,1.002185,39584.081033
0.021973,0.013242,-0.002373,-0.056970,0.032855,1.008227,39584.086000
0.016647,0.003654,-0.005569,0.014075,0.049609,1.031573,39584.091031
0.008125,0.002589,0.004018,0.020392,0.030383,1.055926,39584.095999
0.012386,0.002589,0.006149,-0.030145,-0.021527,1.003375,39584.101034
0.003864,-0.001672,0.002953,-0.058893,-0.059980,0.967486,39584.105993
-0.001462,-0.000607,0.001888,-0.024927,-0.017316,1.002276,39584.111037
0.000668,-0.000607,-0.002373,-0.006250,0.047320,1.050616,39584.115996
-0.000397,-0.004868,0.001888,0.000799,0.066912,1.008502,39584.121032
-0.001462,-0.010194,0.002953,-0.025202,0.031390,0.950732,39584.125996
-0.001462,-0.002737,0.004018,-0.068231,-0.006238,0.951556,39584.131040
0.013451,-0.002737,0.004018,-0.066583,0.003833,0.969500,39584.135999
0.003864,0.001524,-0.001308,-0.043329,0.051989,0.970599,39584.141037
0.008125,0.003654,0.004018,-0.031153,0.072131,0.945056,39584.145997
0.012386,0.002589,-0.001308,-0.033716,0.042743,0.939197,39584.151031
0.024104,0.008981,0.004018,-0.049372,-0.028394,0.965838,39584.155995
0.013451,0.002589,0.002953,-0.046716,-0.029493,0.959796,39584.161035
0.011321,0.006850,0.002953,-0.048548,0.019397,1.000445,39584.165994
0.010255,0.006850,-0.000243,-0.021173,0.045123,1.021411,39584.171030
0.005994,0.000459,0.001888,0.002447,0.028186,1.030017,39584.176016
0.003864,-0.002737,0.007214,-0.065119,-0.048810,0.999804,39584.181011
0.008125,-0.000607,0.009344,-0.043054,-0.017133,1.020404,39584.186020
0.000668,-0.002737,-0.002373,-0.013574,0.029376,1.032855,39584.191008
0.000668,0.002589,0.001888,-0.019068,0.050341,0.990924,39584.196025
-0.001462,-0.004868,-0.004504,-0.058985,0.005297,0.957324,39584.201008
0.002799,-0.002737,0.005083,-0.065851,-0.029035,0.918780,39584.206021
0.007060,-0.008064,0.004018,-0.050195,-0.009809,0.967486,39584.211005
0.004929,0.004720,0.009344,-0.058985,0.037799,0.981769,39584.216022
0.011321,0.003654,-0.002373,-0.055322,0.058123,0.933612,39584.221005
0.013451,0.010046,-0.002373,-0.063104,0.022143,0.910632,39584.226020
0.009190,0.012176,0.001888,-0.039301,-0.030408,0.976092,39584.231009
0.007060,0.011111,0.002953,-0.053125,-0.040845,1.038714,39584.236021
0.015582,0.011111,0.004018,-0.032984,0.025073,1.025439,39584.241011
0.008125,0.008981,0.007214,-0.008539,0.045031,1.040362,39584.246022
0.011321,0.012176,-0.001308,-0.014032,0.003558,1.045215,39584.251005
0.005994,0.006850,-0.004504,0.004187,-0.053205,1.056384,39584.256022
0.004929,0.000459,0.004018,-0.016046,-0.082318,1.034228,39584.261006
0.002799,0.000459,0.007214,-0.030695,-0.033246,1.029925,39584.266022
-0.000397,-0.004868,0.001888,-0.003687,0.000995,1.023974,39584.271008
-0.000397,-0.002737,0.002953,0.009222,0.004748,1.005115,39584.276021
-0.003593,-0.004868,0.001888,-0.033075,-0.029676,0.958972,39584.280019
-0.003593,-0.004868,0.001888,-0.059076,-0.064099,0.953021,39584.284988
-0.007854,-0.008064,0.004018,-0.059076,-0.064099,0.953021,39584.286028
-0.004658,-0.008064,0.002953,-0.062830,-0.012006,0.961902,39584.290018
-0.002528,-0.001672,0.004018,-0.046076,0.041827,0.964465,39584.294994
-0.003593,0.003654,0.004018,-0.022363,0.040545,0.996966,39584.300016
0.003864,0.003654,-0.003439,-0.042963,0.000628,0.978381,39584.305009
0.007060,0.002589,-0.001308,-0.068140,-0.050000,1.000445,39584.309995
0.012386,0.013242,-0.000243,-0.067407,-0.024915,0.999988,39584.315019
0.011321,-0.000607,0.004018,-0.057062,0.001086,1.059131,39584.319994
0.011321,0.004720,0.006149,-0.015405,0.015826,1.055285,39584.325014
-0.001462,0.001524,-0.001308,-0.011194,-0.029309,1.051440,39584.329991
-0.001462,0.001524,-0.000243,-0.054865,-0.085157,1.045398,39584.335018
0.000668,-0.001672,0.000822,-0.062555,-0.089826,1.007037,39584.339992
-0.003593,-0.012325,0.000822,-0.059625,-0.038465,1.019122,39584.345020
-0.008919,-0.013390,0.007214,-0.024652,0.005847,0.997241,39584.350000
-0.017441,-0.004868,-0.000243,-0.029138,-0.014569,0.979297,39584.355016
-0.013180,-0.003803,0.002953,-0.060816,-0.025006,0.948535,39584.359994
-0.016376,-0.003803,-0.001308,-0.069147,-0.036634,0.913928,39584.365017
-0.014246,-0.003803,0.007214,-0.076471,-0.002942,0.953845,39584.369996
-0.001462,0.001524,0.005083,-0.062921,0.061877,0.972430,39584.375018
0.007060,0.008981,0.000822,-0.039667,0.064532,0.960711,39584.379996
0.009190,0.014307,0.000822,-0.051203,0.006121,0.975818,39584.385014
0.007060,0.008981,-0.002373,-0.053491,-0.040204,0.979388,39584.389993
0.018778,0.011111,-0.004504,-0.025476,-0.045423,1.028369,39584.395020
0.014516,0.012176,0.002953,-0.016870,-0.007978,1.036426,39584.399994
0.016647,0.000459,0.005083,-0.021265,-0.016675,1.012256,39584.405016
0.009190,0.004720,0.000822,-0.029505,-0.064832,1.018664,39584.409993
0.005994,0.005785,-0.003439,-0.016229,-0.110974,0.996142,39584.415022
-0.011050,-0.000607,-0.002373,-0.026209,-0.105939,1.041186,39584.419990
-0.018507,-0.001672,0.006149,-0.031519,-0.023267,1.044208,39584.425014
-0.016376,-0.009129,0.004018,-0.024561,0.013354,1.026446,39584.430020
-0.011050,-0.004868,0.006149,-0.010553,-0.000104,1.024615,39584.434989
-0.016376,-0.003803,0.002953,-0.029321,-0.020063,0.991473,39584.440020
-0.008919,-0.005933,-0.003439,-0.083887,-0.044416,0.987079,39584.444988
-0.004658,-0.003803,-0.001308,-0.069971,0.010699,0.955493,39584.450022
-0.004658,-0.006998,0.001888,-0.029871,0.046496,1.002185,39584.454992
-0.000397,0.001524,0.004018,0.004919,0.031024,1.024615,39584.460024
0.010255,-0.003803,-0.001308,-0.023462,-0.027295,0.970416,39584.464989
0.003864,-0.000607,-0.000243,-0.062830,-0.073163,0.948077,39584.470024
-0.001462,0.000459,-0.005569,-0.049646,-0.049543,0.945514,39584.474989
-0.004658,-0.001672,-0.001308,-0.025842,-0.023816,1.000903,39584.480017
-0.005724,-0.000607,0.010410,-0.024195,0.011340,0.972979,39584.484990
-0.015311,-0.005933,0.005083,-0.039667,-0.016401,0.948810,39584.490021
-0.018507,-0.003803,-0.001308,-0.051477,-0.075727,1.005847,39584.494991
-0.013180,-0.003803,-0.006634,-0.014581,-0.053388,1.016284,39584.500019
-0.008919,-0.011259,0.000822,-0.042322,-0.004132,1.019946,39584.504990
-0.002528,-0.009129,0.001888,-0.076654,0.048602,0.932788,39584.510018
-0.001462,-0.008064,0.002953,-0.066767,0.035144,0.886737,39584.514995
-0.005724,-0.003803,0.000822,-0.052851,-0.020520,0.933337,39584.520018
-0.006789,0.002589,-0.003439,-0.024835,-0.027112,0.962634,39584.524989
0.001733,0.004720,-0.004504,-0.072717,0.006030,0.974078,39584.530022
0.005994,0.010046,-0.004504,-0.084070,0.064715,0.921069,39584.534990
0.012386,0.008981,-0.002373,-0.054773,0.026995,0.930774,39584.540026
0.009190,0.013242,0.001888,-0.012659,-0.051557,1.025714,39584.544988
0.008125,0.018568,-0.002373,-0.028314,-0.077375,0.994494,39584.550030
0.003864,0.011111,-0.010896,-0.070703,-0.037915,0.967761,39584.555018
0.002799,0.015372,-0.001308,-0.054773,0.033404,1.020129,39584.559998
0.008125,0.005785,-0.000243,0.018378,0.019488,1.058124,39584.565019
-0.000397,0.001524,0.002953,0.051794,-0.020154,1.123401,39584.569998
-0.001462,-0.000607,0.001888,-0.013117,-0.079389,1.033771,39584.575019
-0.001462,-0.003803,0.002953,-0.069055,-0.061170,0.990283,39584.579990
-0.009985,-0.001672,-0.003439,-0.056787,-0.000745,0.982318,39584.585019
-0.008919,-0.014455,0.000822,0.015722,-0.003766,1.015918,39584.589996
-0.013180,-0.009129,0.001888,0.011603,-0.020795,1.013171,39584.595016
-0.017441,-0.011259,0.004018,-0.016504,-0.045423,0.940570,39584.600000
-0.012115,-0.005933,0.002953,-0.077204,-0.043134,0.929858,39584.605016
-0.006789,-0.005933,-0.007700,-0.062372,0.032214,0.940021,39584.609997
-0.007854,-0.010194,-0.000243,-0.011469,0.055743,0.983508,39584.615017
-0.004658,-0.006998,0.004018,-0.008722,0.040820,0.963000,39584.619992
-0.004658,-0.003803,0.006149,-0.066034,-0.004316,0.960986,39584.625015
0.001733,0.000459,0.000822,-0.102564,-0.027204,0.945331,39584.629991
0.002799,0.000459,-0.004504,-0.059534,0.000628,0.999438,39584.635018
0.000668,0.000459,-0.006634,-0.015863,0.038348,1.037433,39584.639994
0.003864,0.005785,0.004018,-0.014948,0.032855,1.041095,39584.645020
0.009190,-0.002737,-0.001308,-0.066767,0.001635,0.949542,39584.650000
-0.002528,-0.000607,0.000822,-0.081781,-0.050916,0.966388,39584.655021
-0.001462,0.006850,-0.002373,-0.053583,-0.039838,1.008044,39584.659993
0.000668,0.005785,-0.006634,-0.026483,0.010974,1.047778,39584.665018
-0.006789,0.007915,-0.000243,-0.024378,0.043383,1.018023,39584.669995
-0.005724,0.001524,0.000822,-0.074640,0.038073,0.950274,39584.675023
-0.003593,0.000459,0.001888,-0.078302,-0.036908,0.980121,39584.680012
-0.002528,0.012176,0.002953,-0.035730,-0.042951,1.022601,39584.684994
-0.002528,0.008981,-0.002373,-0.035455,0.029651,1.036334,39584.690026
0.003864,0.012176,-0.004504,-0.046350,0.070575,1.008502,39584.694992
0.013451,0.008981,-0.007700,-0.047907,0.048419,0.989917,39584.700022
0.011321,0.004720,0.001888,-0.004144,-0.014844,1.034961,39584.704988
0.008125,0.004720,0.001888,0.010870,-0.049451,1.067004,39584.710023
0.010255,0.003654,-0.005569,-0.048914,-0.011914,1.061694,39584.714992
0.005994,0.004720,-0.003439,-0.052759,0.026904,1.006671,39584.720020
-0.007854,-0.001672,-0.004504,0.008215,0.014727,1.032672,39584.724991
-0.011050,-0.004868,-0.005569,0.010596,-0.046796,1.076159,39584.730016
-0.007854,-0.005933,0.005083,-0.038660,-0.069593,1.053821,39584.735000
-0.015311,-0.003803,0.004018,-0.078394,-0.015760,1.013812,39584.740022
-0.005724,-0.008064,-0.000243,-0.042505,0.049517,1.033038,39584.744990
-0.007854,-0.011259,-0.006634,0.006842,0.017016,1.062243,39584.750025
-0.005724,-0.010194,0.000822,-0.069422,-0.018964,0.963916,39584.754990
-0.002528,-0.012325,0.004018,-0.096979,-0.013562,0.950824,39584.760023
-0.000397,-0.009129,0.002953,-0.053766,0.039721,1.018573,39584.764992
-0.005724,-0.004868,-0.000243,-0.001947,0.055102,1.016559,39584.770019
-0.003593,-0.002737,-0.004504,-0.026300,0.033038,1.001452,39584.774995
0.001733,0.002589,-0.002373,-0.089197,-0.013837,0.965289,39584.780020
0.001733,0.000459,0.004018,-0.079950,-0.034894,0.988818,39584.784992
0.009190,0.001524,-0.004504,-0.026392,0.017016,1.044391,39584.790021
0.008125,0.005785,-0.000243,-0.003687,0.043292,1.046496,39584.794996
0.003864,0.003654,0.000822,-0.015222,0.024066,1.020495,39584.800020
0.000668,0.004720,-0.005569,-0.052942,-0.018140,0.983600,39584.804994
0.000668,0.002589,-0.000243,-0.064386,-0.041761,1.010058,39584.810021
0.003864,0.000459,0.002953,-0.040949,-0.011182,1.046496,39584.815018
-0.003593,-0.001672,0.005083,-0.025385,0.030841,1.064624,39584.819996
-0.003593,-0.001672,-0.002373,-0.023371,0.044757,1.036334,39584.825017
-0.001462,0.001524,-0.003439,-0.027674,0.005481,1.003009,39584.829996
-0.000397,-0.006998,-0.003439,-0.063104,-0.048810,1.012897,39584.835019
0.001733,-0.002737,0.005083,-0.063013,-0.017682,0.969500,39584.839999
0.005994,-0.010194,0.002953,-0.050745,0.027179,1.003192,39584.845016
0.001733,0.000459,0.002953,-0.027399,0.050616,1.003375,39584.850000
-0.000397,-0.000607,-0.001308,-0.024195,0.025622,1.005847,39584.855021
-0.000397,-0.004868,-0.003439,-0.050836,-0.029126,1.023883,39584.859995
-0.000397,0.000459,0.002953,-0.059442,-0.028211,1.012164,39584.865021
0.004929,-0.005933,0.002953,-0.046167,0.009784,1.057483,39584.869999
0.003864,-0.000607,0.006149,-0.030420,0.048602,1.059222,39584.875019
-0.000397,-0.003803,-0.002373,-0.020532,0.025714,1.006213,39584.879995
0.001733,-0.002737,-0.004504,-0.030512,-0.041669,1.021045,39584.885023
-0.000397,-0.000607,-0.004504,-0.029688,-0.040937,1.017657,39584.889999
0.004929,-0.008064,0.000822,-0.056604,-0.016126,1.045489,39584.895020
0.002799,-0.005933,0.004018,-0.036829,0.048419,1.024981,39584.900006
0.003864,-0.008064,-0.002373,-0.017694,0.043292,0.996600,39584.905023
-0.001462,-0.003803,-0.000243,-0.033441,-0.011274,1.002093,39584.909008
-0.003593,-0.001672,-0.006634,-0.065393,-0.040296,0.966113,39584.913995
0.001733,-0.006998,0.001888,-0.082147,-0.014386,0.961718,39584.919014
-0.003593,-0.003803,0.000822,-0.042963,0.040454,0.992297,39584.923997
-0.002528,-0.002737,0.006149,0.001166,0.055743,1.009967,39584.929011
0.003864,-0.001672,0.000822,-0.024835,0.022418,1.004016,39584.933996
0.008125,0.001524,-0.004504,-0.058985,-0.017865,0.938556,39584.939012
0.008125,-0.006998,-0.002373,-0.073450,-0.021070,0.972705,39584.943997
0.009190,-0.001672,0.001888,-0.040216,0.018756,1.000262,39584.948980
0.005994,-0.003803,0.000822,0.002447,0.031756,1.001086,39584.954026
0.000668,0.000459,0.004018,-0.039392,0.012439,0.980029,39584.958987
0.002799,0.000459,0.000822,-0.077570,-0.040937,0.943133,39584.964025
-0.000397,-0.001672,-0.006634,-0.054041,-0.069410,0.966754,39584.968984
0.003864,0.000459,-0.002373,-0.026300,-0.009351,1.001544,39584.974021
-0.003593,-0.009129,0.007214,-0.035730,0.040179,1.006671,39584.978986
-0.003593,-0.006998,0.001888,-0.044245,0.044391,0.964190,39584.984021
-0.001462,-0.005933,-0.001308,-0.042780,-0.005048,0.965381,39584.988982
-0.000397,-0.001672,-0.007700,-0.041406,-0.036359,0.986896,39584.994027
0.001733,-0.004868,-0.000243,-0.041406,0.011889,1.015460,39584.998986
0.003864,-0.004868,-0.000243,-0.061090,0.056933,0.963275,39585.004028
0.009190,0.000459,0.005083,-0.046991,0.062426,0.942035,39585.008986
0.008125,0.003654,0.001888,-0.039850,0.025714,0.987811,39585.014023
0.009190,0.006850,-0.002373,-0.039484,-0.044416,0.984149,39585.018989
0.009190,0.005785,-0.003439,-0.030695,-0.017774,0.997607,39585.024018
-0.000397,0.006850,-0.005569,-0.038111,0.037982,1.011432,39585.028985
0.015582,0.001524,0.002953,-0.002863,0.042376,1.015368,39585.034027
0.014516,-0.000607,0.000822,-0.000208,0.002002,1.000354,39585.038989
0.007060,-0.002737,0.000822,-0.013757,-0.035718,0.973529,39585.044030
0.002799,0.000459,-0.001308,-0.052942,-0.060712,0.976733,39585.048987
0.002799,-0.000607,-0.001308,-0.053308,-0.002301,1.009601,39585.054027
-0.008919,-0.006998,0.004018,-0.021448,0.041552,1.003833,39585.058986
-0.007854,-0.008064,0.004018,-0.009363,0.018206,1.004657,39585.064031
-0.005724,-0.005933,0.002953,-0.033899,-0.020520,0.989551,39585.068983
-0.001462,-0.003803,-0.003439,-0.060999,-0.030866,0.953753,39585.074025
0.002799,-0.010194,-0.003439,-0.054132,0.026812,0.956134,39585.078987
-0.000397,-0.014455,-0.000243,-0.049463,0.055194,0.971148,39585.083994
0.002799,-0.008064,-0.001308,-0.014856,0.042926,0.965655,39585.089012
0.001733,-0.006998,0.002953,-0.031061,0.008410,0.935168,39585.093999
0.002799,-0.004868,0.001888,-0.073175,-0.041852,0.957782,39585.099009
0.007060,-0.004868,-0.003439,-0.082605,-0.013562,0.936816,39585.103996
0.003864,-0.002737,-0.003439,-0.046442,0.035235,0.958606,39585.109012
0.000668,0.003654,0.007214,-0.012110,0.063433,0.959521,39585.114000
0.004929,-0.001672,0.002953,-0.033258,0.036517,0.948626,39585.119010
0.007060,0.005785,0.005083,-0.082514,-0.027478,0.942309,39585.123999
0.007060,0.004720,-0.004504,-0.061273,-0.008527,0.926196,39585.129014
0.009190,0.008981,-0.001308,-0.014765,0.018939,1.006122,39585.134000
0.010255,0.008981,-0.003439,-0.003595,0.059222,1.010699,39585.139010
0.015582,0.002589,0.001888,-0.043054,0.044116,0.947253,39585.143995
0.014516,0.007915,0.009344,-0.070337,-0.016858,0.926837,39585.149013
0.010255,0.008981,-0.000243,-0.031885,-0.034620,0.986346,39585.154004
0.010255,0.008981,-0.001308,-0.011835,-0.008985,1.038440,39585.159014
0.010255,0.011111,0.000822,-0.002313,0.053088,1.001727,39585.163997
0.010255,0.005785,-0.001308,-0.029413,0.043383,0.955951,39585.169011
0.007060,0.004720,-0.001308,-0.031702,-0.013288,0.979297,39585.173997
0.010255,0.004720,0.005083,-0.008631,-0.053662,0.999438,39585.179014
-0.001462,0.004720,-0.000243,-0.023371,-0.023175,1.017749,39585.183995
-0.000397,0.006850,-0.003439,-0.039209,0.029651,1.010516,39585.189013
0.003864,-0.000607,0.000822,-0.026666,0.045855,1.004199,39585.194002
0.005994,-0.001672,0.005083,0.000616,0.007586,1.034961,39585.198996
0.001733,-0.005933,0.005083,0.003088,-0.050367,1.037616,39585.204026
0.004929,-0.006998,-0.003439,-0.041315,-0.041944,1.022418,39585.208986
-0.000397,-0.002737,0.001888,-0.053858,0.023242,0.984332,39585.214030
-0.002528,-0.006998,-0.004504,-0.022730,0.032031,0.968493,39585.218989
0.003864,-0.008064,0.005083,-0.008814,0.014453,0.997516,39585.224029
-0.001462,-0.013390,0.008279,-0.032709,-0.041669,0.966479,39585.228986
-0.001462,-0.008064,0.004018,-0.054956,-0.043042,0.934070,39585.234023
-0.009985,-0.005933,-0.001308,-0.051660,0.015551,0.960803,39585.238983
0.002799,-0.004868,-0.002373,-0.023645,0.052996,0.982684,39585.244025
0.000668,-0.004868,-0.000243,-0.015772,0.060687,0.965472,39585.248990
0.001733,-0.003803,0.004018,-0.065393,0.001178,0.922442,39585.254029
0.007060,-0.002737,0.005083,-0.081964,-0.028943,0.923907,39585.258989
0.009190,0.008981,-0.000243,-0.066400,0.005664,0.979205,39585.264025
0.009190,0.008981,-0.007700,-0.043512,0.038989,0.991290,39585.268991
0.010255,0.010046,0.001888,-0.018335,0.047137,0.971515,39585.274024
0.011321,0.006850,0.000822,-0.047907,-0.000379,0.969867,39585.278985
0.019843,0.008981,0.006149,-0.073999,-0.057782,0.981860,39585.284028
0.013451,0.006850,0.001888,-0.059168,-0.036817,0.993396,39585.288987
0.004929,0.012176,-0.000243,-0.044885,0.008044,1.026172,39585.294028
0.001733,0.010046,0.000822,-0.027948,0.028094,1.015185,39585.298987
0.002799,0.007915,-0.001308,-0.024652,0.004931,1.020679,39585.304031
-0.000397,0.002589,0.005083,-0.055048,-0.047528,1.022510,39585.308983
0.002799,-0.000607,0.005083,-0.026392,0.001910,1.057208,39585.314031
-0.000397,0.001524,-0.000243,-0.006433,0.037890,1.038074,39585.318991
0.008125,0.001524,0.001888,-0.019159,0.026904,0.993030,39585.324021
0.002799,-0.006998,-0.001308,-0.047174,-0.026380,0.980487,39585.328992
0.010255,-0.003803,0.002953,-0.046076,-0.060620,0.968127,39585.334003
0.002799,-0.005933,0.004018,-0.033533,-0.024915,0.996692,39585.339012
0.004929,-0.003803,0.004018,-0.029047,0.029834,1.024798,39585.344001
-0.001462,-0.001672,0.001888,-0.034082,0.019580,0.972796,39585.349021
-0.002528,-0.004868,-0.004504,-0.038477,-0.027112,0.985797,39585.354001
0.001733,-0.004868,-0.001308,-0.029413,-0.063642,0.986804,39585.359019
-0.001462,-0.008064,0.001888,-0.039301,-0.045423,1.019763,39585.364000
0.000668,-0.005933,0.005083,-0.053583,0.023059,0.993762,39585.369017
-0.004658,-0.006998,0.001888,-0.025659,0.038256,0.973895,39585.374002
-0.005724,-0.004868,-0.000243,-0.011926,0.000079,1.006763,39585.379012
-0.000397,-0.004868,0.002953,-0.030603,-0.049909,0.991015,39585.383998
-0.003593,-0.011259,-0.001308,-0.069147,-0.048810,0.966571,39585.389015
0.001733,-0.003803,0.001888,-0.076837,0.003924,0.943957,39585.394007
0.002799,-0.001672,0.002953,-0.043695,0.025348,0.954669,39585.399017
-0.001462,0.002589,-0.001308,-0.023187,0.013263,0.966388,39585.403999
0.003864,0.005785,-0.004504,-0.048914,-0.029218,0.945971,39585.409023
0.004929,0.010046,0.001888,-0.087915,-0.042401,0.938739,39585.414001
0.007060,0.005785,-0.000243,-0.064844,0.004748,1.001452,39585.419017
0.011321,0.011111,0.001888,-0.018518,0.031665,1.030200,39585.423998
0.011321,0.010046,0.000822,-0.001123,0.016833,1.035327,39585.429011
0.009190,0.010046,-0.001308,-0.047266,-0.033521,1.003192,39585.433995
0.000668,0.004720,-0.002373,-0.071253,-0.081403,0.998340,39585.439017
0.004929,0.007915,0.000822,-0.046991,-0.050733,1.031024,39585.444000
0.004929,0.001524,0.002953,-0.004144,-0.004865,1.050616,39585.449015
0.000668,-0.002737,0.002953,0.006384,-0.002393,1.041644,39585.454027
-0.003593,-0.001672,-0.003439,-0.034448,-0.037641,0.976642,39585.458993
-0.004658,-0.003803,-0.003439,-0.055597,-0.079389,0.971057,39585.464027
-0.009985,-0.004868,-0.000243,-0.042139,-0.056226,0.983783,39585.468989
-0.006789,-0.014455,0.007214,-0.030237,-0.005048,1.018023,39585.474025
-0.011050,-0.006998,0.000822,-0.016413,0.036975,0.992206,39585.478989
-0.007854,-0.004868,0.001888,-0.020441,0.026812,0.965838,39585.484026
-0.008919,-0.003803,-0.000243,-0.063104,-0.029218,0.979022,39585.488989
0.001733,-0.001672,-0.002373,-0.049005,-0.022168,0.954303,39585.494032
0.000668,-0.008064,0.000822,-0.049097,0.010699,0.992846,39585.498992
0.007060,0.001524,0.008279,-0.025385,0.050433,0.985705,39585.504025
0.010255,0.001524,-0.001308,-0.018152,0.033953,0.985156,39585.508023
0.010255,0.001524,-0.001308,-0.051935,-0.031690,0.968402,39585.512992
0.007060,0.003654,-0.004504,-0.051935,-0.031690,0.968402,39585.514035
0.007060,0.005785,-0.007700,-0.050562,-0.063550,0.967120,39585.518025
0.007060,0.005785,-0.007700,-0.042963,-0.039563,1.017932,39585.522991
0.008125,0.001524,-0.004504,-0.042963,-0.039563,1.017932,39585.524038
0.004929,0.004720,-0.002373,-0.018610,0.012255,1.043109,39585.528031
0.001733,0.008981,0.007214,-0.037561,0.011615,0.991382,39585.532999
-0.000397,0.001524,-0.002373,-0.046716,-0.023359,0.991931,39585.538026
-0.004658,0.003654,-0.002373,-0.032251,-0.065839,1.006396,39585.542992
-0.003593,0.001524,-0.004504,-0.030237,-0.044233,1.034320,39585.548027
-0.004658,-0.002737,0.004018,-0.033167,0.032306,1.026904,39585.552988
-0.001462,-0.001672,0.000822,-0.023554,0.038348,0.970141,39585.558029
-0.003593,-0.003803,-0.000243,-0.020441,0.003283,0.994220,39585.562998
0.000668,-0.002737,-0.002373,-0.045892,-0.044049,0.972247,39585.568024
-0.001462,-0.002737,-0.010896,-0.070795,-0.046430,0.954944,39585.573014
0.001733,0.000459,-0.000243,-0.063745,0.007037,0.961535,39585.578005
-0.002528,-0.004868,0.000822,-0.025293,0.040820,0.983691,39585.583019
-0.000397,-0.001672,0.006149,-0.019342,0.029010,1.004199,39585.588000
-0.002528,0.001524,-0.002373,-0.036188,-0.018232,0.976733,39585.593019
-0.003593,-0.001672,-0.004504,-0.070886,-0.035352,0.980121,39585.598000
-0.001462,0.000459,-0.000243,-0.060083,0.013995,1.012622,39585.603020
-0.000397,-0.001672,-0.002373,-0.013941,0.047229,1.039813,39585.608003
0.002799,-0.005933,0.004018,0.009772,0.045214,1.050159,39585.613018
0.000668,-0.005933,-0.001308,-0.038843,-0.000013,1.016559,39585.618004
0.003864,-0.002737,-0.002373,-0.080591,-0.043958,0.982043,39585.623027
0.007060,0.001524,-0.008765,-0.051203,-0.016584,0.989093,39585.628009
0.002799,-0.006998,-0.001308,-0.031427,0.028460,1.011249,39585.633017
-0.001462,0.002589,0.001888,-0.025202,0.052813,0.998980,39585.638001
0.001733,-0.000607,0.002953,-0.035913,0.010882,0.937182,39585.643020
0.000668,0.007915,0.000822,-0.048273,-0.040937,0.971423,39585.647996
-0.000397,0.012176,-0.000243,-0.052759,-0.017408,1.001452,39585.653022
0.011321,0.005785,-0.009830,-0.049372,0.027636,1.002368,39585.658003
0.007060,0.007915,-0.003439,-0.008264,0.060870,1.005939,39585.663021
0.004929,0.011111,0.004018,-0.005426,0.050341,1.007220,39585.668010
0.009190,0.008981,0.000822,-0.042413,-0.006147,1.035510,39585.673021
0.008125,0.012176,-0.005569,-0.057062,-0.025830,1.021686,39585.678004
0.007060,0.005785,-0.003439,-0.039942,0.002185,1.060596,39585.683021
0.005994,0.004720,-0.002373,-0.000665,0.035327,1.105273,39585.687999
0.009190,-0.003803,-0.003439,0.013800,0.009509,1.080462,39585.693021
0.005994,-0.006998,0.005083,-0.020349,-0.035077,1.036883,39585.698031
-0.003593,-0.008064,0.002953,-0.058893,-0.055310,0.986896,39585.702993
-0.012115,-0.013390,-0.007700,-0.052942,-0.029035,1.016376,39585.708024
-0.013180,-0.012325,-0.000243,-0.006799,0.022235,1.045489,39585.712998
-0.009985,-0.017651,0.000822,0.009588,0.046130,1.022510,39585.718025
-0.005724,-0.015520,0.002953,-0.051935,0.015826,0.976550,39585.722995
-0.002528,-0.015520,0.001888,-0.060907,-0.016675,0.917682,39585.728029
-0.005724,-0.010194,-0.000243,-0.067133,0.001910,0.957690,39585.732997
-0.006789,-0.002737,-0.006634,-0.066858,0.065631,0.962451,39585.738029
0.000668,-0.005933,-0.001308,-0.047724,0.097766,0.955676,39585.742995
0.004929,0.004720,0.002953,-0.043146,0.053729,0.952655,39585.748031
0.007060,0.001524,0.002953,-0.048090,0.013263,0.977923,39585.752995
0.017712,0.014307,-0.002373,-0.070246,-0.002484,1.010333,39585.758027
0.018778,0.005785,-0.005569,-0.058069,0.031756,1.011981,39585.762995
0.018778,0.011111,-0.005569,-0.042322,0.058490,0.989917,39585.768027
0.010255,0.010046,0.000822,-0.015863,0.049334,1.024981,39585.772996
0.012386,0.011111,0.001888,-0.024561,-0.022443,1.026904,39585.778029
0.011321,0.001524,-0.001308,-0.032526,-0.047437,1.021228,39585.782994
0.009190,0.012176,-0.000243,-0.039667,-0.008527,1.050891,39585.788030
0.009190,0.000459,-0.003439,-0.029505,0.037616,1.041461,39585.792996
0.008125,-0.000607,-0.000243,0.003912,0.038806,1.049792,39585.798033
-0.000397,-0.004868,0.007214,-0.005609,0.006396,1.001636,39585.803001
0.001733,-0.006998,0.006149,-0.043604,-0.031781,1.003192,39585.808029
0.005994,-0.003803,0.000822,-0.048548,-0.006879,0.996051,39585.813015
0.005994,-0.002737,-0.001308,-0.022089,0.049334,1.012347,39585.818005
0.003864,-0.005933,-0.003439,-0.020715,0.065814,0.997607,39585.823022
0.007060,-0.000607,0.000822,-0.033808,0.011981,1.005939,39585.828004
0.000668,-0.003803,0.000822,-0.039209,-0.032331,0.976001,39585.833023
0.000668,-0.002737,0.005083,-0.042322,-0.018506,1.001269,39585.838002
0.002799,-0.004868,-0.001308,-0.052576,0.032946,1.036975,39585.843022
0.007060,-0.005933,-0.006634,-0.032617,0.052996,1.034503,39585.848002
0.001733,-0.002737,0.001888,-0.013849,0.023791,1.038440,39585.853022
-0.001462,-0.010194,0.000822,-0.024103,-0.019056,1.031299,39585.858004
0.001733,-0.010194,0.005083,-0.060907,-0.047895,1.041095,39585.863027
0.003864,-0.012325,-0.002373,-0.068506,0.013812,0.993121,39585.868003
-0.003593,-0.006998,-0.005569,-0.040125,0.049060,0.992022,39585.873026
-0.007854,-0.005933,0.005083,-0.034265,0.046313,1.008227,39585.878003
0.003864,-0.011259,-0.001308,-0.075098,-0.027295,0.940570,39585.883020
0.002799,-0.002737,0.002953,-0.066767,0.017199,0.926379,39585.888000
-0.000397,-0.006998,-0.001308,-0.052942,0.037249,0.977008,39585.893023
0.012386,0.005785,0.001888,-0.027490,0.066455,0.944049,39585.898002
0.013451,0.000459,-0.003439,-0.035730,0.023333,0.924182,39585.903020
0.004929,0.003654,-0.001308,-0.073541,-0.031140,0.950824,39585.908022
0.005994,0.007915,0.002953,-0.062280,-0.009168,0.990375,39585.913020
0.011321,0.006850,0.002953,-0.033167,0.040179,1.017840,39585.917999
0.012386,0.007915,0.005083,-0.014124,0.065722,1.040545,39585.923023
0.012386,0.005785,-0.006634,-0.023828,0.021960,1.047778,39585.928005
0.015582,0.006850,-0.006634,-0.042230,-0.040754,1.044482,39585.933025
0.010255,0.005785,0.002953,-0.032617,-0.037732,1.020495,39585.938029
0.005994,-0.004868,0.002953,-0.033075,-0.011457,1.069201,39585.942991
0.007060,-0.005933,0.004018,-0.010004,0.028735,1.070117,39585.948028
0.004929,-0.003803,-0.002373,0.005835,0.023425,1.001086,39585.952990
0.001733,-0.010194,-0.001308,-0.026758,-0.025739,1.005115,39585.958032
-0.011050,-0.006998,0.001888,-0.050287,-0.055127,0.969043,39585.962996
-0.003593,-0.013390,0.001888,-0.053125,-0.015393,0.980304,39585.968032
-0.008919,-0.008064,0.009344,-0.027674,0.052996,0.953753,39585.972998
-0.004658,-0.006998,0.007214,-0.017877,0.047961,0.996417,39585.978030
-0.004658,-0.006998,0.002953,-0.049829,0.016375,0.989459,39585.982996
0.002799,-0.002737,-0.005569,-0.055963,-0.016034,0.947345,39585.988030
-0.005724,-0.001672,0.000822,-0.055963,-0.001203,0.988086,39585.992991
0.009190,-0.001672,0.005083,-0.026392,0.057940,1.040729,39585.998032
0.011321,-0.005933,0.001888,-0.011652,0.052630,1.008044,39586.002995
0.005994,0.001524,0.001888,-0.026850,0.018481,0.987536,39586.008028
-0.000397,-0.002737,-0.008765,-0.049555,-0.059888,0.999072,39586.012995
0.004929,-0.008064,0.002953,-0.062830,-0.076825,1.010516,39586.018034
0.002799,-0.005933,0.005083,-0.035455,-0.006879,1.002185,39586.022992
-0.006789,-0.013390,0.008279,-0.023828,0.025622,0.976001,39586.028033
-0.000397,-0.009129,0.002953,-0.030603,0.005023,0.968860,39586.032993
-0.008919,-0.004868,0.004018,-0.037836,-0.028852,0.934344,39586.038030
-0.008919,-0.006998,0.000822,-0.059809,-0.043134,0.945422,39586.042995
-0.009985,-0.008064,0.004018,-0.073450,0.013263,0.948535,39586.048035
-0.004658,-0.010194,0.005083,-0.044336,0.050525,0.941852,39586.052994
-0.000397,-0.003803,0.000822,-0.018701,0.051074,0.943316,39586.058037
-0.001462,0.004720,0.002953,-0.047357,0.006213,0.916217,39586.063007
0.005994,-0.003803,-0.002373,-0.085626,-0.039289,0.926745,39586.068041
0.005994,0.007915,-0.004504,-0.083154,-0.010816,0.929492,39586.073002
0.003864,0.006850,0.005083,-0.028772,0.039538,0.995501,39586.078004
0.002799,0.008981,0.010410,-0.007349,0.046954,1.033862,39586.083026
0.008125,0.006850,-0.002373,-0.024286,0.012072,0.999347,39586.088003
0.009190,0.005785,-0.002373,-0.047357,-0.039746,1.009143,39586.093021
0.002799,0.005785,-0.000243,-0.036188,-0.044416,1.025622,39586.098006
0.001733,-0.000607,-0.000243,-0.028406,-0.002484,1.059314,39586.103022
0.002799,-0.001672,0.002953,-0.009638,0.038623,1.023059,39586.108006
0.000668,-0.006998,0.002953,-0.005701,0.016742,0.972064,39586.113021
-0.004658,-0.004868,-0.003439,-0.038843,-0.043042,0.970050,39586.118005
0.001733,-0.000607,-0.001308,-0.042047,-0.051282,0.967395,39586.123023
-0.001462,-0.005933,0.001888,-0.062738,0.001178,0.955768,39586.127022
-0.007854,-0.002737,0.001888,-0.051203,0.055011,0.943225,39586.132008
-0.003593,0.001524,0.007214,-0.023828,0.044207,0.955127,39586.137021
0.000668,0.003654,-0.000243,-0.015222,-0.003675,0.974444,39586.141998
0.001733,0.005785,0.001888,-0.031702,-0.027295,0.964831,39586.147031
-0.001462,-0.000607,-0.003439,-0.063288,-0.006971,0.971972,39586.151999
0.004929,0.003654,0.001888,-0.052851,0.040179,0.991748,39586.157023
0.002799,0.002589,0.000822,-0.001947,0.047412,1.008044,39586.161997
-0.002528,-0.002737,0.004018,-0.007166,-0.015027,1.042193,39586.167017
0.001733,-0.003803,0.001888,-0.046716,-0.056592,1.008594,39586.171997
-0.003593,-0.009129,-0.004504,-0.051019,-0.040204,1.017840,39586.177021
-0.001462,-0.005933,-0.000243,-0.031702,0.008136,1.021411,39586.182000
-0.001462,-0.014455,0.005083,-0.007166,0.027819,1.002643,39586.187021
-0.006789,-0.015520,0.006149,-0.033258,-0.000013,0.958148,39586.191998
-0.015311,-0.016586,0.005083,-0.058710,-0.039930,0.884173,39586.197017
-0.009985,-0.006998,-0.000243,-0.067590,-0.033521,0.892779,39586.202003
-0.008919,-0.004868,0.000822,-0.059625,0.028094,0.927661,39586.206996
-0.004658,-0.003803,0.002953,-0.042230,0.064074,0.922809,39586.212023
-0.000397,-0.001672,0.004018,-0.042505,0.050708,0.895984,39586.216992
0.002799,0.011111,0.001888,-0.052851,0.015826,0.886828,39586.222022
0.016647,0.020699,-0.002373,-0.078851,-0.015851,0.937823,39586.226994
0.015582,0.020699,-0.006634,-0.051477,0.025439,0.965014,39586.232028
0.016647,0.017503,-0.002373,-0.020441,0.045214,0.992297,39586.236995
0.014516,0.020699,0.001888,-0.000025,0.047778,1.031024,39586.242025
0.019843,0.017503,0.005083,-0.015680,-0.008710,1.051440,39586.246997
0.017712,0.016438,0.000822,-0.040674,-0.067121,1.028461,39586.252030
0.007060,0.011111,-0.003439,-0.011286,-0.047254,1.051715,39586.256991
0.002799,0.007915,0.002953,-0.009363,-0.015302,1.071765,39586.262029
0.003864,0.003654,0.000822,0.010412,0.003375,1.054919,39586.266995
0.000668,-0.003803,0.004018,-0.021356,-0.027112,1.021136,39586.272021
-0.003593,-0.005933,0.007214,-0.042963,-0.058881,1.006030,39586.276994
-0.009985,-0.001672,0.001888,-0.028406,-0.042127,1.010882,39586.282034
-0.009985,-0.014455,-0.000243,-0.011377,0.022235,1.022876,39586.286994
-0.004658,-0.005933,0.001888,-0.016962,0.072314,1.005023,39586.292027
-0.005724,-0.017651,0.006149,-0.032343,0.055926,0.944140,39586.296995
-0.002528,-0.008064,0.007214,-0.053583,-0.017774,0.970965,39586.302030
0.003864,-0.006998,0.000822,-0.053125,-0.038190,0.938556,39586.306993
0.003864,-0.008064,-0.003439,-0.058435,-0.000653,1.000995,39586.312004
0.004929,-0.001672,-0.007700,-0.051660,0.032855,0.983966,39586.316998
0.003864,-0.004868,0.000822,-0.027490,0.022143,0.975726,39586.322005
0.000668,0.000459,0.002953,-0.042597,-0.022077,1.013721,39586.327029
0.000668,-0.002737,0.001888,-0.041956,-0.052381,0.998156,39586.332002
-0.007854,-0.002737,0.004018,-0.060175,-0.039380,1.021960,39586.337023
-0.002528,-0.002737,-0.005569,-0.044794,0.035327,1.020404,39586.342003
0.001733,0.000459,-0.001308,-0.020532,0.034045,1.005847,39586.347019
-0.004658,-0.009129,0.001888,-0.029779,0.001635,1.001727,39586.352000
-0.000397,-0.009129,0.007214,-0.059534,-0.037091,0.978381,39586.357021
0.005994,0.001524,-0.002373,-0.086633,-0.016217,0.940112,39586.361996
0.005994,0.003654,-0.003439,-0.055048,0.051715,0.955584,39586.367021
0.008125,0.005785,-0.004504,-0.019068,0.060870,0.950000,39586.372001
0.019843,0.008981,-0.002373,-0.030512,0.024432,0.939929,39586.377021
0.017712,0.012176,0.001888,-0.077478,-0.031049,0.893878,39586.382001
0.016647,0.017503,-0.003439,-0.093683,-0.066755,0.898547,39586.387021
0.014516,0.022829,-0.005569,-0.048639,-0.010633,0.983416,39586.392000
0.004929,0.022829,-0.002373,-0.008081,0.021228,1.022510,39586.397018
0.003864,0.017503,-0.001308,0.007117,0.011523,1.057849,39586.401999
0.004929,0.010046,0.004018,-0.021539,-0.030774,1.051898,39586.407021
0.001733,0.008981,0.004018,-0.040766,-0.064557,1.079913,39586.411994
0.007060,-0.000607,-0.002373,-0.018610,-0.023999,1.123401,39586.417024
-0.000397,-0.000607,-0.000243,0.017554,0.020312,1.132007,39586.422003
0.002799,-0.005933,-0.000243,0.011694,0.021411,1.084582,39586.427024
0.001733,-0.017651,-0.001308,-0.022821,-0.017408,1.045215,39586.432001
-0.004658,-0.018716,0.004018,-0.049646,-0.066205,1.006396,39586.437019
-0.006789,-0.019781,0.004018,-0.038934,-0.045514,0.974902,39586.441999
-0.011050,-0.011259,0.001888,-0.042688,0.012530,0.975635,39586.447019
-0.014246,-0.008064,-0.001308,-0.055139,0.017199,0.911731,39586.452022
-0.001462,-0.002737,-0.007700,-0.076380,-0.017133,0.902850,39586.456993
-0.002528,-0.001672,-0.002373,-0.074274,-0.012006,0.950366,39586.462027
0.003864,0.004720,-0.001308,-0.077020,0.034869,0.971332,39586.466992
-0.001462,0.010046,-0.000243,-0.040308,0.075152,1.010058,39586.472027
0.010255,0.014307,-0.005569,-0.025842,0.046405,1.027637,39586.477005
0.016647,0.008981,-0.003439,-0.031793,-0.022443,1.068927,39586.482021
0.012386,0.007915,-0.006634,-0.042963,-0.044690,1.049151,39586.486995
0.015582,0.006850,0.006149,-0.036554,-0.012647,1.068652,39586.492029
0.011321,0.002589,0.002953,-0.030878,0.025622,1.091174,39586.496996
0.010255,0.005785,-0.001308,-0.008447,0.004474,1.021777,39586.502030
0.007060,-0.003803,-0.005569,-0.019983,-0.043866,1.021777,39586.506996
-0.000397,-0.001672,0.002953,-0.050287,-0.077008,0.977923,39586.512025
-0.008919,-0.006998,-0.000243,-0.050195,-0.065931,1.000537,39586.516994
-0.003593,-0.003803,0.006149,-0.040033,0.008044,0.978015,39586.522032
-0.006789,-0.005933,-0.004504,-0.016321,0.034686,0.960345,39586.526998
-0.008919,-0.000607,-0.000243,-0.035639,0.018481,0.977740,39586.532028
-0.004658,0.003654,-0.001308,-0.045526,-0.015119,0.958789,39586.536996
0.000668,-0.003803,-0.002373,-0.058527,-0.007795,0.970324,39586.542026
0.003864,-0.002737,0.000822,-0.032709,0.037158,1.018573,39586.546996
0.009190,0.000459,0.000822,-0.009821,0.042193,1.022052,39586.552028
0.009190,0.005785,-0.000243,-0.014124,0.015460,1.004840,39586.556990
0.008125,-0.001672,-0.008765,-0.033441,-0.046521,1.000537,39586.562000
0.004929,-0.000607,-0.007700,-0.046167,-0.080671,1.019946,39586.566993
0.002799,-0.003803,0.002953,-0.025568,-0.024091,1.051715,39586.572001
-0.001462,-0.002737,0.002953,-0.015497,0.031207,1.033313,39586.577022
-0.006789,-0.010194,-0.001308,-0.021265,0.025531,1.033496,39586.582001
-0.012115,-0.004868,-0.004504,-0.049280,-0.022351,0.992022,39586.587019
-0.009985,-0.009129,-0.004504,-0.042139,-0.043683,0.992846,39586.592002
-0.004658,-0.011259,-0.001308,-0.050745,-0.003949,0.998431,39586.597020
-0.008919,-0.014455,0.004018,-0.070154,0.052996,0.964007,39586.601999
-0.002528,-0.004868,0.000822,-0.047174,0.074054,0.928119,39586.607022
-0.000397,0.000459,-0.002373,-0.042597,0.035327,0.906329,39586.611996
0.000668,0.001524,-0.003439,-0.058527,-0.018689,0.960071,39586.617018
0.002799,0.006850,-0.004504,-0.087824,-0.006147,0.938464,39586.621997
0.015582,0.007915,-0.000243,-0.069513,0.031848,0.944873,39586.627022
0.015582,0.011111,0.001888,-0.027490,0.044299,0.969500,39586.632008
0.011321,0.012176,-0.000243,-0.009455,0.000079,1.019488,39586.637024
0.009190,0.014307,-0.005569,-0.039392,-0.061902,1.019946,39586.641998
0.009190,0.008981,-0.010896,-0.043146,-0.060529,1.006213,39586.647022
-0.001462,0.004720,0.000822,-0.031061,-0.016675,1.055652,39586.652001
-0.006789,-0.002737,0.000822,0.013708,0.017840,1.074145,39586.657024
-0.003593,-0.005933,0.002953,0.007574,0.000354,1.055102,39586.662004
-0.009985,-0.015520,-0.003439,-0.034906,-0.030133,0.983050,39586.667025
-0.017441,-0.014455,-0.003439,-0.063104,-0.056867,0.958880,39586.672001
-0.016376,-0.015520,-0.000243,-0.050653,-0.004132,0.969134,39586.677026
-0.016376,-0.018716,-0.000243,-0.019068,0.048877,0.968219,39586.682001
-0.014246,-0.014455,0.001888,-0.009363,0.056201,0.922625,39586.687022
-0.009985,-0.013390,0.002953,-0.051477,0.010150,0.901751,39586.691998
-0.008919,-0.002737,-0.003439,-0.076288,-0.022535,0.867419,39586.697000
-0.001462,-0.002737,-0.006634,-0.077570,0.003833,0.902301,39586.702026
-0.000397,0.001524,0.000822,-0.067774,0.052996,0.931506,39586.706994
0.000668,-0.001672,-0.003439,-0.024927,0.056109,0.936999,39586.712030
0.002799,0.014307,0.001888,-0.007990,0.021319,0.968677,39586.717003
-0.003593,0.011111,-0.002373,-0.038660,-0.024823,0.977282,39586.722024
0.003864,0.008981,-0.005569,-0.049921,-0.036084,1.019946,39586.726997
0.005994,0.010046,-0.007700,-0.023737,0.011340,1.031848,39586.732026
-0.000397,0.002589,0.004018,0.017462,0.032031,1.051990,39586.736041
-0.004658,0.004720,-0.000243,0.010229,0.022601,1.052539,39586.741024
-0.000397,0.000459,-0.000243,-0.038202,-0.024823,0.975085,39586.746041
-0.007854,-0.001672,-0.002373,-0.048731,-0.050916,0.978564,39586.751025
-0.013180,-0.004868,-0.006634,-0.013849,-0.010633,0.987445,39586.756046
-0.005724,-0.003803,0.005083,-0.015131,0.021869,0.985339,39586.761027
-0.005724,-0.003803,0.000822,-0.054041,0.038714,0.911090,39586.766037
-0.006789,-0.001672,-0.000243,-0.071893,0.003009,0.861926,39586.771020
-0.012115,0.003654,-0.002373,-0.038019,-0.036817,0.932330,39586.776039
-0.005724,0.007915,-0.001308,-0.010370,0.005023,0.992480,39586.781028
-0.001462,0.005785,-0.011961,-0.035364,0.062426,0.986896,39586.786039
-0.001462,0.002589,0.005083,-0.044336,0.081652,0.958331,39586.791021
0.001733,0.001524,-0.002373,-0.024927,0.027179,0.990008,39586.796049
0.001733,0.000459,-0.002373,-0.008356,-0.049451,1.073047,39586.801027
0.002799,0.002589,-0.000243,-0.006067,-0.043958,1.047687,39586.806044
-0.001462,-0.004868,-0.003439,-0.045343,0.006396,1.018115,39586.811040
-0.006789,-0.004868,0.002953,-0.045984,0.032306,1.020587,39586.816010
-0.009985,-0.013390,0.001888,0.001806,0.003009,1.027637,39586.821049
-0.015311,-0.006998,0.006149,0.004736,-0.054944,1.048419,39586.826007
-0.018507,-0.012325,-0.001308,-0.048914,-0.028485,0.968310,39586.831055
-0.009985,-0.010194,-0.008765,-0.086176,0.033038,0.942676,39586.836012
-0.011050,-0.002737,-0.000243,-0.051019,0.087970,0.913287,39586.841054
-0.013180,-0.006998,0.000822,-0.021356,0.062884,0.929034,39586.846009
-0.007854,0.002589,0.004018,-0.042139,0.018939,0.969684,39586.851045
0.001733,0.008981,-0.003439,-0.088098,0.001178,0.893420,39586.856016
0.012386,0.012176,-0.006634,-0.090112,0.033496,0.926471,39586.861051
0.011321,0.017503,-0.004504,-0.038294,0.073687,0.991290,39586.866012
0.016647,0.013242,-0.006634,-0.015772,0.045764,0.990741,39586.871051
0.014516,0.020699,0.002953,-0.038202,-0.007886,0.987079,39586.876016
0.016647,0.015372,-0.000243,-0.055048,-0.049359,0.982043,39586.881054
0.005994,0.014307,-0.000243,-0.039209,-0.047437,1.058673,39586.886012
0.004929,0.013242,-0.008765,0.017920,-0.000470,1.098773,39586.891052
-0.008919,0.003654,-0.001308,0.027624,0.007495,1.075427,39586.896016
-0.011050,0.001524,0.006149,-0.022821,-0.024549,1.066089,39586.901051
-0.016376,-0.004868,0.002953,-0.061090,-0.054761,1.021045,39586.906014
-0.019572,-0.011259,0.001888,-0.057611,-0.052381,1.014819,39586.911054
-0.020637,-0.011259,-0.000243,-0.014581,0.014911,1.050525,39586.916026
-0.015311,-0.013390,-0.001308,-0.008081,0.057208,1.034778,39586.921055
-0.007854,-0.003803,-0.002373,-0.044428,0.065265,0.976825,39586.926010
-0.002528,-0.015520,-0.000243,-0.077112,0.028369,0.903399,39586.931036
-0.005724,-0.008064,0.002953,-0.075098,-0.007245,0.927112,39586.936040
0.000668,0.000459,-0.001308,-0.058618,0.029559,0.948718,39586.941030
0.003864,0.005785,-0.007700,-0.060175,0.056933,0.957141,39586.946038
0.003864,0.014307,-0.002373,-0.075098,0.050158,0.950641,39586.951024
0.000668,0.005785,-0.005569,-0.088739,-0.002210,0.937732,39586.956041
0.001733,0.015372,0.007214,-0.048456,-0.055310,1.051623,39586.961028
0.007060,0.017503,0.000822,-0.043146,-0.024182,1.078723,39586.966039
0.000668,0.005785,-0.003439,-0.030512,0.046679,1.071856,39586.971023
0.002799,0.010046,-0.003439,-0.020349,0.055377,1.072955,39586.976038
0.001733,-0.004868,-0.000243,-0.024103,0.025988,1.045123,39586.981024
-0.001462,-0.000607,0.004018,-0.039209,-0.023908,1.052630,39586.986039
-0.005724,-0.004868,0.000822,-0.053949,-0.027936,1.029559,39586.991027
-0.006789,-0.002737,0.001888,-0.059259,0.028552,1.025073,39586.996045
-0.000397,0.002589,-0.008765,-0.039118,0.055011,0.994677,39587.001033
-0.000397,0.002589,-0.000243,-0.014673,0.035693,0.956866,39587.006038
0.001733,0.003654,0.000822,-0.044428,-0.013288,0.941852,39587.011022
0.008125,0.007915,-0.003439,-0.050012,0.037158,0.945605,39587.016042
0.008125,0.008981,-0.003439,-0.002039,0.067187,0.989825,39587.021025
0.010255,0.016438,0.001888,0.014715,0.054095,1.028552,39587.026039
0.004929,0.014307,-0.006634,-0.033716,-0.004407,1.028552,39587.031025
0.010255,0.014307,0.000822,-0.050745,-0.047345,1.014819,39587.036043
0.014516,0.001524,0.000822,-0.001398,-0.026014,1.080829,39587.041029
0.004929,0.002589,0.002953,0.018378,0.021594,1.127154,39587.046046
0.000668,-0.003803,-0.000243,0.004462,0.029742,1.086871,39587.051042
0.002799,-0.001672,-0.002373,-0.035089,-0.008619,1.028461,39587.056037
-0.001462,-0.008064,-0.001308,-0.039026,-0.041303,1.022418,39587.061045
-0.009985,-0.013390,-0.001308,-0.016687,-0.033887,1.060138,39587.066013
-0.011050,-0.009129,0.006149,-0.008173,0.032763,1.037250,39587.071051
-0.014246,-0.016586,-0.000243,-0.014215,0.070849,0.998248,39587.076017
-0.012115,-0.004868,-0.000243,-0.047266,0.049701,0.932879,39587.081053
-0.006789,-0.002737,-0.003439,-0.076563,-0.002759,0.913012,39587.086010
0.002799,-0.001672,-0.004504,-0.061182,-0.000379,0.937091,39587.091056
-0.000397,0.000459,0.002953,-0.053491,0.058398,0.957324,39587.096019
0.008125,0.015372,0.005083,-0.038202,0.090075,0.974444,39587.101058
0.012386,0.020699,0.000822,-0.028497,0.065905,0.984149,39587.106017
0.013451,0.022829,-0.006634,-0.035089,0.019214,1.015094,39587.111050
0.020908,0.021764,-0.003439,-0.046259,-0.031781,1.038531,39587.116016
0.017712,0.016438,-0.001308,-0.006342,0.003283,1.061511,39587.121054
0.015582,0.015372,0.002953,0.025519,0.021869,1.123126,39587.126019
0.009190,0.012176,0.004018,0.032568,0.021685,1.108020,39587.131051
0.008125,0.004720,-0.000243,-0.016321,-0.026563,1.079455,39587.136013
0.007060,-0.003803,-0.000243,-0.026209,-0.075177,1.058673,39587.141057
-0.006789,-0.005933,0.002953,-0.005426,-0.041852,1.061053,39587.146016
-0.006789,-0.011259,0.001888,-0.016687,0.017199,1.063434,39587.151050
-0.012115,-0.013390,0.007214,-0.036188,0.051715,0.995868,39587.156016
-0.009985,-0.014455,0.001888,-0.051294,0.026629,0.933520,39587.161055
-0.009985,-0.011259,-0.001308,-0.048548,-0.015943,0.955218,39587.166012
-0.009985,-0.010194,-0.001308,-0.041406,-0.004132,0.976001,39587.171050
-0.003593,-0.011259,0.002953,-0.056238,0.043750,0.982318,39587.176039
0.008125,-0.006998,0.007214,-0.074732,0.087695,0.940387,39587.181024
0.005994,-0.000607,0.000822,-0.074457,0.057391,0.931689,39587.186046
0.009190,0.001524,-0.002373,-0.081964,-0.014569,0.985888,39587.191024
0.011321,0.008981,-0.002373,-0.052210,-0.035718,1.009051,39587.196046
0.008125,-0.000607,0.000822,-0.053949,-0.008161,1.050159,39587.201029
0.008125,0.002589,0.006149,-0.043787,0.031298,1.023334,39587.206045
0.007060,0.003654,-0.000243,-0.035455,0.013079,1.021960,39587.211028
0.003864,0.000459,0.001888,-0.041681,-0.035993,1.028827,39587.216032
0.000668,-0.004868,-0.004504,-0.044885,-0.069135,1.020587,39587.221031
-0.009985,-0.009129,-0.004504,-0.049280,-0.037824,1.028003,39587.226046
-0.007854,-0.005933,0.006149,-0.035455,0.036059,1.024615,39587.231028
-0.007854,-0.009129,0.008279,-0.050836,0.056201,0.937365,39587.236040
-0.006789,-0.006998,-0.000243,-0.056330,0.023608,0.921252,39587.241027
-0.001462,0.001524,-0.003439,-0.061548,-0.027845,0.899371,39587.246037
0.000668,0.004720,-0.004504,-0.072992,-0.014386,0.914386,39587.251027
0.004929,0.010046,0.001888,-0.067224,0.050616,0.922442,39587.256040
0.008125,0.005785,0.005083,-0.054315,0.073779,0.921710,39587.261027
0.014516,0.013242,-0.001308,-0.042139,0.047870,0.961810,39587.266038
0.017712,0.020699,-0.004504,-0.027216,-0.010541,0.993487,39587.271025
0.019843,0.018568,-0.005569,-0.027582,-0.048719,1.039996,39587.276040
0.011321,0.008981,-0.002373,-0.034723,-0.004865,1.054645,39587.281030
0.010255,0.007915,0.000822,-0.011926,0.011157,1.042926,39587.286043
0.007060,0.005785,0.001888,0.019385,-0.013745,1.090350,39587.291025
-0.004658,-0.001672,0.001888,0.011603,-0.064557,1.081836,39587.296043
0.000668,-0.009129,-0.003439,0.001349,-0.086988,1.071582,39587.301045
-0.012115,-0.008064,-0.000243,-0.030237,-0.038099,1.036517,39587.306013
-0.015311,-0.021912,-0.002373,-0.022363,0.024432,1.007678,39587.311060
-0.019572,-0.017651,0.004018,-0.019617,0.035052,0.988727,39587.316018
-0.018507,-0.016586,0.006149,-0.044061,0.008960,0.934344,39587.321060
-0.013180,-0.016586,0.002953,-0.056696,-0.032056,0.924182,39587.326012
-0.007854,-0.003803,0.001888,-0.068781,-0.005048,0.915942,39587.331062
-0.004658,-0.006998,-0.007700,-0.072168,0.060504,0.935077,39587.336016
0.002799,-0.004868,0.000822,-0.037103,0.076342,0.914477,39587.341055
0.005994,0.001524,0.000822,-0.029871,0.045855,0.921985,39587.345033
0.005994,0.001524,0.000822,-0.058801,-0.013013,0.943133,39587.350013
0.007060,0.004720,0.002953,-0.058801,-0.013013,0.943133,39587.351061
0.009190,0.004720,-0.004504,-0.066492,-0.026746,0.956866,39587.355036
0.004929,-0.000607,-0.003439,-0.041406,-0.000837,0.984332,39587.360014
0.003864,0.001524,0.000822,-0.028131,0.012255,1.022693,39587.365034
0.002799,-0.002737,0.002953,-0.027674,-0.007337,0.968402,39587.370013
-0.004658,-0.000607,0.000822,-0.052210,-0.070417,0.978381,39587.375036
-0.009985,-0.000607,0.001888,-0.063654,-0.089917,0.947986,39587.380011
-0.014246,-0.004868,-0.004504,-0.065210,-0.026105,0.994586,39587.385033
-0.016376,0.001524,-0.001308,-0.043329,0.031115,0.975451,39587.390011
-0.019572,-0.012325,0.000822,-0.003412,0.049426,0.940021,39587.395032
-0.008919,-0.004868,0.004018,-0.061548,0.017108,0.937640,39587.400016
-0.011050,-0.005933,-0.001308,-0.092310,-0.002759,0.888659,39587.405035
-0.000397,0.006850,-0.002373,-0.085352,0.000537,0.911914,39587.410022
-0.003593,0.008981,-0.003439,-0.047266,0.066729,0.906695,39587.415035
0.003864,0.011111,-0.007700,-0.048914,0.070391,0.929858,39587.420035
0.015582,0.010046,0.000822,-0.051935,0.020129,0.943042,39587.425006
0.014516,0.015372,-0.000243,-0.047083,-0.036084,0.926288,39587.430040
0.012386,0.017503,0.001888,-0.049921,-0.035077,0.985614,39587.435006
0.005994,0.014307,-0.010896,-0.037744,0.003833,1.034045,39587.440036
0.002799,0.012176,-0.004504,-0.008539,0.008044,1.018298,39587.445004
-0.003593,0.007915,0.002953,0.016730,-0.015210,1.036609,39587.450036
-0.008919,0.000459,0.001888,-0.006525,-0.076459,1.044940,39587.455011
-0.014246,-0.000607,0.008279,-0.047357,-0.101087,1.040362,39587.460040
-0.017441,-0.000607,-0.001308,-0.028772,-0.026929,1.035052,39587.465007
-0.019572,-0.008064,-0.004504,-0.009180,0.031024,1.040088,39587.470038
-0.030225,-0.008064,-0.002373,-0.012201,0.030017,1.034961,39587.475008
-0.013180,-0.012325,0.000822,-0.031427,0.010333,0.964007,39587.480040
-0.015311,-0.006998,0.007214,-0.057886,-0.004956,0.949359,39587.485010
-0.008919,-0.009129,-0.000243,-0.051752,0.038256,0.948810,39587.490039
-0.004658,-0.003803,-0.006634,-0.031427,0.058490,0.975726,39587.495009
0.001733,-0.003803,-0.002373,-0.006799,0.068194,0.954577,39587.500040
0.003864,-0.002737,0.002953,-0.039118,0.019397,0.914660,39587.505011
0.002799,-0.002737,0.001888,-0.072534,-0.045240,0.933337,39587.510038
-0.003593,0.006850,0.001888,-0.062738,-0.050367,0.948077,39587.515013
-0.007854,0.006850,0.002953,-0.043512,0.004474,0.992022,39587.520039
-0.011050,0.008981,-0.002373,-0.024011,0.035144,1.018023,39587.525005
-0.009985,0.001524,-0.006634,-0.011743,0.008502,1.014544,39587.530043
-0.006789,0.001524,0.005083,-0.038568,-0.046247,1.019488,39587.535006
-0.012115,-0.002737,0.000822,-0.042780,-0.028302,1.023425,39587.540039
-0.013180,-0.000607,0.004018,-0.045618,0.003009,1.045672,39587.545009
-0.013180,-0.000607,-0.003439,-0.027124,0.048053,1.038348,39587.550038
-0.015311,-0.005933,-0.000243,-0.040399,0.050067,0.992938,39587.555034
-0.011050,-0.004868,0.005083,-0.053217,-0.005506,0.999438,39587.560015
-0.004658,-0.001672,0.001888,-0.078943,-0.035993,0.968677,39587.565037
-0.005724,0.000459,0.002953,-0.067407,0.016192,0.955218,39587.570015
-0.002528,0.008981,-0.000243,-0.049372,0.064257,0.968036,39587.575035
0.000668,0.011111,-0.006634,-0.033441,0.053912,0.949817,39587.580016
-0.000397,0.012176,0.000822,-0.045526,-0.025556,0.966571,39587.585036
-0.004658,0.008981,0.004018,-0.059809,-0.029309,1.035052,39587.590018
0.002799,0.014307,0.004018,-0.036554,0.023059,1.067737,39587.595040
0.003864,0.011111,0.007214,0.006201,0.043567,1.085864,39587.600013
-0.007854,0.015372,-0.003439,-0.009729,-0.001661,1.090442,39587.605042
-0.006789,0.001524,-0.001308,-0.040308,-0.062085,1.095019,39587.610013
-0.002528,0.002589,0.004018,-0.045252,-0.053479,1.074512,39587.615038
-0.002528,-0.009129,0.002953,-0.012110,0.001178,1.108294,39587.620011
-0.012115,-0.003803,0.002953,0.015539,0.019671,1.103442,39587.625036
-0.018507,-0.011259,0.000822,0.003729,0.021136,1.075152,39587.630013
-0.015311,-0.016586,-0.004504,-0.029596,-0.022992,1.009051,39587.635033
-0.022768,-0.011259,0.000822,-0.047174,-0.025739,0.974811,39587.640013
-0.012115,-0.018716,0.008279,-0.036829,0.023608,1.017749,39587.645036
-0.015311,-0.013390,0.004018,-0.032526,0.069201,0.992480,39587.650015
-0.019572,-0.009129,-0.002373,-0.036279,0.052539,0.969226,39587.655037
-0.006789,0.002589,0.004018,-0.066126,0.018481,0.950824,39587.660012
-0.006789,-0.002737,0.000822,-0.063471,-0.019056,0.982776,39587.665034
-0.001462,0.002589,0.001888,-0.040216,0.011157,1.025348,39587.670038
-0.003593,0.004720,0.001888,-0.026392,0.054370,1.055285,39587.675006
-0.004658,0.004720,0.007214,0.002356,0.061145,1.072680,39587.680043
0.002799,0.008981,-0.000243,-0.012659,0.016833,1.057208,39587.685004
0.001733,0.002589,-0.005569,-0.024103,-0.043775,1.066089,39587.690044
-0.004658,-0.001672,0.000822,-0.026026,-0.056775,1.077258,39587.695010
-0.002528,-0.003803,0.006149,-0.027033,-0.001569,1.072955,39587.700040
-0.007854,-0.000607,0.005083,-0.017877,0.020678,1.040545,39587.705008
-0.012115,-0.003803,0.004018,-0.017694,0.001361,1.021960,39587.710044
-0.012115,-0.002737,-0.001308,-0.031702,-0.034528,1.018573,39587.715008
-0.016376,-0.003803,0.002953,-0.030878,-0.023725,1.011523,39587.720042
-0.015311,-0.004868,0.002953,-0.035181,0.041461,1.021869,39587.725008
-0.006789,-0.003803,0.007214,-0.032800,0.088336,1.010425,39587.730037
-0.000397,-0.005933,0.002953,-0.027399,0.077349,0.997973,39587.735013
0.000668,-0.000607,-0.003439,-0.028955,0.011523,0.989551,39587.740042
0.000668,0.004720,0.000822,-0.044885,-0.041120,1.009051,39587.745010
0.004929,0.003654,0.000822,-0.066400,-0.013288,1.024066,39587.750043
0.003864,-0.000607,0.000822,-0.034540,0.033313,1.045215,39587.755012
0.001733,0.001524,0.004018,-0.008356,0.021502,1.038623,39587.760040
-0.001462,-0.000607,0.002953,0.000799,-0.013745,1.071490,39587.765009
-0.007854,0.001524,-0.001308,-0.022547,-0.049726,1.052539,39587.770042
-0.009985,-0.004868,-0.001308,-0.039850,-0.031690,1.052173,39587.775007
-0.011050,-0.011259,0.004018,-0.021173,0.025622,1.081378,39587.780043
-0.009985,-0.010194,0.006149,0.005652,0.042285,1.071856,39587.785012
-0.012115,-0.013390,0.006149,-0.025568,0.010516,1.048327,39587.790038
-0.012115,-0.011259,0.000822,-0.058252,-0.033521,0.987353,39587.795043
-0.008919,-0.009129,0.000822,-0.082605,-0.027753,0.983233,39587.800020
-0.009985,-0.004868,0.001888,-0.065210,0.051074,0.976642,39587.805034
-0.005724,-0.010194,0.005083,-0.038477,0.077807,0.989551,39587.810019
-0.004658,-0.002737,0.008279,-0.023004,0.069751,0.979663,39587.815037
0.000668,0.000459,-0.000243,-0.055414,0.011432,0.958606,39587.820012
0.005994,0.002589,0.000822,-0.069055,-0.017133,0.969500,39587.825035
0.002799,0.007915,-0.000243,-0.049005,0.012988,1.019580,39587.830015
0.011321,0.001524,0.001888,-0.035181,0.042193,1.017108,39587.835037
0.008125,0.001524,0.006149,-0.023645,0.035876,1.028827,39587.840012
0.005994,0.001524,0.001888,-0.046900,-0.019422,1.021045,39587.845040
0.000668,0.000459,0.000822,-0.042688,-0.065107,1.042010,39587.850012
0.000668,-0.000607,-0.002373,-0.033258,-0.034070,1.064075,39587.855037
-0.006789,-0.011259,-0.004504,-0.024195,0.016558,1.063342,39587.860014
-0.008919,-0.009129,0.005083,0.008307,0.032397,1.038623,39587.865030
-0.005724,-0.014455,0.008279,-0.017786,0.005023,0.994403,39587.870014
-0.009985,-0.012325,0.006149,-0.048548,-0.028028,0.981585,39587.875033
-0.011050,-0.012325,-0.003439,-0.054773,-0.025373,0.963366,39587.880011
-0.011050,-0.012325,0.002953,-0.051935,0.030566,0.973803,39587.885040
-0.003593,-0.008064,0.000822,-0.026666,0.080188,0.993487,39587.890014
-0.002528,-0.009129,0.007214,-0.042780,0.047503,0.961718,39587.895038
0.003864,-0.004868,0.001888,-0.078577,-0.003217,0.934619,39587.900017
0.005994,0.003654,-0.001308,-0.062921,-0.014569,0.943866,39587.905038
0.004929,0.001524,-0.003439,-0.036463,0.011432,1.020770,39587.910017
0.009190,0.002589,0.002953,-0.024011,0.048968,1.015277,39587.915038
0.010255,-0.002737,0.002953,-0.005335,0.044940,0.995868,39587.920013
0.008125,-0.000607,0.011475,-0.034723,-0.024182,1.028552,39587.925003
0.002799,-0.000607,0.000822,-0.030054,-0.062818,1.020129,39587.930042
0.000668,-0.001672,-0.001308,-0.034632,-0.023084,1.056384,39587.935013
-0.006789,-0.002737,-0.002373,-0.036829,0.021228,1.020679,39587.940042
-0.004658,-0.008064,0.002953,-0.006159,0.040088,1.002002,39587.945015
-0.002528,-0.010194,0.007214,-0.022180,-0.002301,0.996142,39587.950040
-0.003593,-0.009129,0.005083,-0.036829,-0.032056,0.952014,39587.955014
-0.001462,-0.009129,0.004018,-0.051019,-0.012830,0.966296,39587.960043
-0.003593,-0.004868,0.001888,-0.038111,0.036425,0.982593,39587.964040
-0.003593,-0.004868,0.001888,-0.025385,0.073413,0.946887,39587.969005
0.002799,-0.008064,0.000822,-0.025385,0.073413,0.946887,39587.970050
0.003864,-0.004868,-0.001308,-0.036920,0.054553,0.946521,39587.974044
0.011321,-0.000607,0.005083,-0.062189,-0.004956,0.934527,39587.979007
0.008125,0.000459,0.001888,-0.085169,-0.031781,0.962451,39587.984039
0.011321,0.003654,-0.000243,-0.065302,0.012805,0.977191,39587.989006
0.003864,0.000459,-0.004504,-0.023187,0.031848,0.989734,39587.994047
0.009190,-0.005933,0.005083,-0.019159,0.003009,1.004840,39587.999002
0.004929,-0.011259,0.004018,-0.044245,-0.043317,0.968585,39588.004042
-0.003593,-0.009129,0.006149,-0.060907,-0.082593,0.959155,39588.009004
-0.012115,-0.010194,-0.002373,-0.032068,-0.036634,0.975909,39588.014046
-0.011050,-0.016586,-0.001308,-0.012110,0.014911,0.980212,39588.019004
-0.012115,-0.015520,-0.000243,-0.020441,0.035235,0.937091,39588.024043
-0.008919,-0.017651,0.007214,-0.048090,-0.001294,0.900470,39588.029005
-0.008919,-0.010194,0.006149,-0.097437,-0.033429,0.878772,39588.034042
-0.011050,-0.003803,-0.000243,-0.089197,0.010974,0.890307,39588.039005
-0.008919,0.001524,0.001888,-0.068781,0.059680,0.922168,39588.044040
0.002799,0.006850,-0.001308,-0.044977,0.095019,0.923266,39588.049005
0.013451,0.005785,-0.000243,-0.031153,0.074969,0.915027,39588.054039
0.021973,0.008981,0.002953,-0.059992,0.004382,0.935077,39588.059010
0.019843,0.010046,0.000822,-0.057153,-0.012647,0.933429,39588.064023
0.027300,0.017503,-0.004504,-0.038843,0.017291,0.990649,39588.069040
0.019843,0.011111,-0.005569,-0.031885,0.016009,0.975543,39588.074015
0.019843,0.006850,-0.002373,-0.004785,-0.011182,0.969958,39588.079033
0.011321,0.007915,0.006149,-0.036554,-0.085157,0.986072,39588.084013
0.004929,0.005785,0.002953,-0.056696,-0.089002,0.970965,39588.089031
-0.009985,0.003654,0.005083,-0.043604,-0.055677,0.992846,39588.094020
-0.012115,0.003654,-0.003439,0.004278,0.009875,1.023883,39588.099031
-0.013180,0.003654,0.001888,-0.008081,0.028003,1.019031,39588.104014
-0.009985,-0.006998,0.001888,-0.017786,0.009234,0.968768,39588.109032
-0.005724,-0.005933,0.001888,-0.027948,-0.029676,0.968127,39588.114017
0.004929,-0.010194,0.007214,-0.046808,-0.008344,0.970050,39588.119034
0.005994,-0.004868,0.000822,-0.039850,0.038531,0.964923,39588.124014
0.009190,0.000459,-0.004504,-0.016687,0.042102,0.904315,39588.129030
0.003864,-0.000607,-0.000243,-0.044061,-0.019147,0.882159,39588.134021
0.000668,-0.001672,0.002953,-0.057245,-0.062726,0.885821,39588.139037
-0.002528,0.003654,0.002953,-0.061090,-0.075086,0.922534,39588.144016
0.000668,0.001524,0.004018,0.012884,0.019854,1.002460,39588.149031
-0.005724,0.008981,0.000822,-0.041590,0.003924,0.959521,39588.154018
0.001733,0.000459,-0.002373,-0.027399,-0.036359,0.955401,39588.159034
-0.005724,-0.002737,0.007214,-0.052851,-0.068311,0.986529,39588.164020
-0.006789,-0.000607,0.002953,-0.031519,0.005755,1.002002,39588.169032
-0.007854,-0.006998,0.000822,-0.026392,0.010333,1.004199,39588.174014
-0.000397,-0.000607,0.002953,-0.016504,0.021960,0.942492,39588.179032
-0.008919,0.000459,-0.002373,-0.056055,-0.029950,0.918139,39588.184042
0.003864,-0.002737,0.000822,-0.073358,-0.058515,0.886279,39588.189005
-0.002528,-0.000607,-0.000243,-0.057153,-0.028302,0.903766,39588.194047
0.001733,0.012176,0.009344,-0.042047,0.039630,0.890857,39588.199005
0.000668,0.006850,0.000822,-0.023554,0.039996,0.936084,39588.204041
0.003864,0.022829,-0.000243,-0.024469,-0.000562,0.907245,39588.209008
0.003864,0.013242,-0.008765,-0.043237,-0.061628,0.978015,39588.214047
0.009190,0.023894,0.006149,-0.063013,-0.024274,0.985156,39588.219005
0.013451,0.019633,-0.003439,-0.058161,0.004565,1.032123,39588.224045
0.013451,0.019633,0.007214,0.006384,0.031848,1.060046,39588.229007
0.004929,0.021764,-0.001308,0.034949,-0.016584,1.078723,39588.234040
-0.002528,0.016438,-0.001308,-0.017969,-0.068494,1.071582,39588.239007
-0.001462,0.007915,0.001888,-0.027674,-0.086713,1.045672,39588.244045
0.007060,-0.000607,0.002953,0.004278,-0.063001,1.053821,39588.249006
0.000668,-0.008064,0.005083,0.039068,-0.015485,1.062976,39588.254044
-0.009985,-0.013390,0.002953,0.046210,-0.047437,1.029742,39588.259007
-0.016376,-0.011259,-0.001308,-0.031702,-0.085340,0.959796,39588.264049
-0.025964,-0.011259,0.001888,-0.076746,-0.077558,0.923907,39588.269008
-0.023833,-0.013390,0.001888,-0.093591,-0.045972,0.918048,39588.274042
-0.028094,-0.006998,0.004018,-0.000299,0.024615,0.990832,39588.279004
-0.024898,-0.003803,0.004018,0.016089,0.042010,0.986529,39588.284042
-0.018507,-0.000607,0.004018,-0.054407,0.015094,0.944598,39588.289006
-0.003593,0.010046,-0.004504,-0.083154,-0.011823,0.913836,39588.294046
0.001733,0.000459,-0.003439,-0.049829,-0.006971,0.982409,39588.299007
0.000668,0.005785,0.005083,-0.008539,0.030200,1.051990,39588.304038
0.009190,0.004720,-0.001308,-0.008631,0.019122,1.020770,39588.309003
0.011321,0.007915,0.004018,-0.014490,-0.024640,1.005115,39588.314041
0.002799,0.015372,-0.004504,-0.053583,-0.098981,0.977649,39588.319008
0.002799,0.006850,-0.002373,-0.049372,-0.093213,1.029742,39588.324019
-0.007854,0.006850,-0.002373,-0.033350,-0.050092,1.042102,39588.329032
-0.007854,0.004720,0.006149,0.005652,0.000262,1.006213,39588.334015
-0.009985,0.004720,0.001888,0.012060,-0.003400,1.039996,39588.339036
-0.014246,0.008981,-0.004504,-0.019159,-0.055677,0.997516,39588.344014
-0.009985,0.003654,-0.006634,-0.041956,-0.063642,1.000171,39588.349028
-0.007854,0.004720,0.001888,-0.045069,-0.003858,0.993762,39588.354019
